time,seconds_elapsed,z,y,x
1789156612645307400,0.295307373046875,-0.9074125289916992,-0.890873908996582,0.14883875846862793
1789156612725263400,0.375263427734375,-0.03901052474975586,-1.4236702919006348,1.606764793395996
1789156612785199900,0.435199951171875,-2.2887001037597656,1.7769355773925781,-3.685741424560547
1789156612845136400,0.495136474609375,1.1376752853393555,-1.3789007663726807,0.27053725719451904
1789156612905103600,0.555103515625,0.5994424819946289,0.5495936870574951,-1.0119373798370361
1789156612965040000,0.6150400390625,-0.8200216293334961,1.5931451320648193,-2.251654863357544
1789156613025007000,0.675007080078125,0.37944889068603516,0.8753705024719238,-2.504370927810669
1789156613084882700,0.734882568359375,0.4277935028076172,-0.4488861560821533,0.046523213386535645
1789156613144819200,0.794819091796875,0.4201192855834961,1.750560998916626,-2.644378662109375
1789156613204725200,0.854725341796875,-1.1819047927856445,2.200615167617798,-1.9043595790863037
1789156613264661800,0.914661865234375,-2.982726573944092,-2.255751848220825,4.0225396156311035
1789156613324598300,0.974598388671875,0.7095975875854492,1.5453948974609375,-4.10269021987915
1789156613384504000,1.034504150390625,0.657872200012207,0.20360922813415527,-1.6743074655532837
1789156613444410000,1.09441015625,-0.054854393005371094,0.6915004253387451,-0.8882336616516113
1789156613504346600,1.1543466796875,-0.4375629425048828,0.4951059818267822,-1.2315881252288818
1789156613564252700,1.214252685546875,-0.3343496322631836,0.6541545391082764,-1.3168895244598389
1789156613624219600,1.2742197265625,-0.058648109436035156,-0.10174322128295898,0.1935436725616455
1789156613724134400,1.374134521484375,0.16965293884277344,-0.1166234016418457,0.14682459831237793
1789156613784071000,1.43407080078125,-0.24732112884521484,0.021590471267700195,0.07127028703689575
1789156613844007400,1.49400732421875,0.17124462127685547,-0.04816102981567383,-0.040435194969177246
1789156613903913500,1.55391357421875,-0.2188425064086914,-0.03721451759338379,0.043268680572509766
1789156613963819300,1.6138193359375,0.11451339721679688,-0.08027195930480957,0.11289811134338379
1789156614023725300,1.673725341796875,-0.1394491195678711,0.02393627166748047,-0.017988085746765137
1789156614083661800,1.733661865234375,0.0745096206665039,-0.007565975189208984,-0.0736047625541687
1789156614143598300,1.793598388671875,-0.08905410766601562,-0.042144060134887695,-0.12501192092895508
1789156614203534800,1.853534912109375,-0.050139427185058594,0.03223133087158203,-0.2104116678237915
1789156614263471400,1.913471435546875,-0.12150859832763672,-0.08940267562866211,-0.19952040910720825
1789156614323377400,1.97337744140625,0.04906940460205078,-0.06829953193664551,-0.06241947412490845
1789156614383314000,2.03331396484375,-0.031716346740722656,-0.0076961517333984375,0.1771778166294098
1789156614443250400,2.09325048828125,-0.0708932876586914,-0.038942575454711914,0.07248681783676147
1789156614543165200,2.193165283203125,0.2725944519042969,0.04944133758544922,0.015278339385986328
1789156614643018500,2.2930185546875,-0.047499656677246094,-0.08695054054260254,0.19641676545143127
1789156614742902500,2.392902587890625,-0.27693653106689453,-0.031670570373535156,-0.018344640731811523
1789156614802808600,2.45280859375,0.02978038787841797,0.033608198165893555,-0.1349925994873047
1789156614862775600,2.512775634765625,0.1085205078125,-0.055635690689086914,-0.013108253479003906
1789156614922712000,2.572712158203125,0.27770233154296875,0.033530235290527344,-0.13515722751617432
1789156614982648800,2.63264892578125,-0.1830282211303711,0.33782100677490234,-0.5493023991584778
1789156615042554600,2.6925546875,-0.024888992309570312,0.0044994354248046875,0.08970075845718384
1789156615102460700,2.752460693359375,-0.27628231048583984,-0.036803483963012695,0.07532292604446411
1789156615162427600,2.812427734375,0.12097930908203125,-0.04323387145996094,0.07908731698989868
1789156615222395000,2.872394775390625,0.05776691436767578,0.021381378173828125,-0.12230336666107178
1789156615282361900,2.93236181640625,0.17092514038085938,-0.005517005920410156,-0.0032123327255249023
1789156615342328800,2.992328857421875,-0.04909229278564453,0.05930900573730469,0.09088307619094849
1789156615402265300,3.052265380859375,-0.050713539123535156,0.012161970138549805,-0.025525331497192383
1789156615462201900,3.112201904296875,-0.04810142517089844,0.030602693557739258,-0.1313120722770691
1789156615522138400,3.172138427734375,-0.06612586975097656,-0.021395206451416016,-0.07663542032241821
1789156615582105600,3.232105712890625,-0.12429237365722656,-0.02707052230834961,-0.048889219760894775
1789156615682050600,3.332050537109375,0.07999706268310547,0.02126336097717285,-0.043885231018066406
1789156615741987000,3.391987060546875,-0.030341148376464844,-0.003974437713623047,0.0972943902015686
1789156615801923600,3.451923583984375,-0.048813819885253906,0.015430212020874023,0.07600224018096924
1789156615861890600,3.511890625,0.03677940368652344,0.026765108108520508,-0.06996876001358032
1789156615921827000,3.5718271484375,0.025086402893066406,0.06309032440185547,-0.08916443586349487
1789156615981763600,3.631763671875,0.0037822723388671875,0.007742643356323242,0.04119616746902466
1789156616041700000,3.6917001953125,-0.03785896301269531,-0.011144399642944336,-0.048678815364837646
1789156616101636900,3.751636962890625,-0.12117862701416016,0.032544851303100586,-0.060628533363342285
1789156616161573400,3.811573486328125,0.2171335220336914,-0.046933889389038086,0.023051083087921143
1789156616221510000,3.871510009765625,1.0127458572387695,0.028847455978393555,-0.06169992685317993
1789156616281415700,3.931415771484375,-0.8853073120117188,0.01949596405029297,0.15895098447799683
1789156616341321700,3.99132177734375,0.10508060455322266,-0.022611379623413086,0.07077831029891968
1789156616401289000,4.0512890625,-0.24771881103515625,0.01621842384338379,0.04535198211669922
1789156616461194800,4.11119482421875,0.21764373779296875,-0.06543922424316406,0.06963467597961426
1789156616521100800,4.171100830078125,-0.08292007446289062,-0.053802490234375,0.07260489463806152
1789156616581006800,4.2310068359375,-0.0679311752319336,0.04478192329406738,-0.059035539627075195
1789156616640882400,4.29088232421875,0.07046031951904297,-0.009344100952148438,0.013437390327453613
1789156616700819000,4.35081884765625,0.01790618896484375,-0.0007405281066894531,-0.02439737319946289
1789156616760755500,4.41075537109375,-0.019143104553222656,-0.016178131103515625,-0.01807701587677002
1789156616820661500,4.47066162109375,0.0012445449829101562,-0.024692773818969727,0.059083759784698486
1789156616880567300,4.5305673828125,0.018848419189453125,0.05116105079650879,-0.00269162654876709
1789156616940534500,4.590534423828125,0.05258750915527344,-0.006484270095825195,0.06537073850631714
1789156617000440600,4.650440673828125,-0.0016794204711914062,0.017826318740844727,0.028267741203308105
1789156617060377000,4.710377197265625,0.25705432891845703,-0.06516695022583008,-0.11491638422012329
1789156617120313600,4.770313720703125,-0.30031299591064453,0.040438175201416016,-0.5149232149124146
1789156617180280600,4.830280517578125,-0.6345424652099609,-0.13738107681274414,0.20044833421707153
1789156617240217000,4.890217041015625,0.5985994338989258,0.013878583908081055,0.13489824533462524
1789156617360090000,5.010090087890625,-0.09743976593017578,0.015542984008789062,0.3147199749946594
1789156617420026600,5.070026611328125,-0.4945869445800781,-0.06912636756896973,-0.364715039730072
1789156617479932700,5.1299326171875,0.4780406951904297,-0.19661736488342285,0.046597838401794434
1789156617539899600,5.189899658203125,-0.1475238800048828,0.041007280349731445,-0.014804482460021973
1789156617599866600,5.24986669921875,-0.10565471649169922,0.2034616470336914,-0.1934487223625183
1789156617659803100,5.30980322265625,-0.2286396026611328,0.14937257766723633,-0.09915405511856079
1789156617719723300,5.36972314453125,-0.1470050811767578,0.062056779861450195,-0.1969376802444458
1789156617779659800,5.42965966796875,-0.036683082580566406,0.17649340629577637,-0.3197953701019287
1789156617839596300,5.48959619140625,0.2869844436645508,0.13881397247314453,-0.5434771180152893
1789156617899532800,5.54953271484375,0.09716987609863281,0.196152925491333,-0.10839712619781494
1789156617959469300,5.60946923828125,-0.06074810028076172,0.009456157684326172,0.24545902013778687
1789156618019405800,5.66940576171875,-0.35405540466308594,0.11724734306335449,0.7464961409568787
1789156618079312000,5.729311767578125,-0.5621566772460938,0.4377467632293701,0.087230384349823
1789156618139218000,5.789218017578125,-0.5775995254516602,0.6986565589904785,0.18514060974121094
1789156618199154400,5.849154541015625,0.1200399398803711,0.22713470458984375,0.2815700173377991
1789156618259121400,5.909121337890625,0.47382450103759766,0.21469354629516602,0.1566239595413208
1789156618319058000,5.969057861328125,-0.07726669311523438,0.21478509902954102,-0.3823283016681671
1789156618378964000,6.0289638671875,-0.9191732406616211,0.662412166595459,0.291323184967041
1789156618438870000,6.0888701171875,0.684147834777832,0.1937704086303711,-0.547676146030426
1789156618498776000,6.148776123046875,0.2261791229248047,0.22098636627197266,-0.2818640172481537
1789156618558743000,6.208742919921875,-0.4636964797973633,0.019596099853515625,-0.31344133615493774
1789156618618679600,6.268679443359375,0.1442089080810547,-0.03562307357788086,-0.4064100980758667
1789156618718533000,6.368533203125,0.6551475524902344,-0.1422286033630371,0.008923709392547607
1789156618778469600,6.4284697265625,2.3611488342285156,-1.1159470081329346,-1.3160138130187988
1789156618838406100,6.48840625,1.125396728515625,-0.6308026313781738,-0.827622652053833
1789156618898312200,6.548312255859375,0.4085359573364258,-0.9286623001098633,-0.40541553497314453
1789156618958279200,6.608279052734375,0.42845726013183594,-1.0048184394836426,-0.5801608562469482
1789156619018246100,6.66824609375,-1.28448486328125,0.20871901512145996,0.7359340786933899
1789156619078213400,6.72821337890625,-2.0476341247558594,0.4433004856109619,0.6683829426765442
1789156619138180400,6.788180419921875,-1.5764660835266113,0.38404273986816406,0.26403242349624634
1789156619198147300,6.848147216796875,0.20658588409423828,0.07950925827026367,-0.277398943901062
1789156619258083800,6.908083740234375,1.2324018478393555,0.03799104690551758,0.16122764348983765
1789156619318020400,6.968020263671875,-0.6250438690185547,0.837315559387207,1.177192211151123
1789156619377987300,7.0279873046875,1.0159378051757812,0.07271814346313477,0.8113166093826294
1789156619437954600,7.08795458984375,0.6398525238037109,0.44124913215637207,0.7811036109924316
1789156619497891000,7.14789111328125,-0.4728126525878906,0.40187835693359375,0.8160051107406616
1789156619557827600,7.20782763671875,-0.7402000427246094,0.017999649047851562,0.6179184913635254
1789156619617794600,7.267794677734375,-1.6846299171447754,-0.16036605834960938,0.32163509726524353
1789156619677731000,7.32773095703125,-0.9761333465576172,-0.0705113410949707,0.24903081357479095
1789156619737667600,7.38766748046875,0.4324455261230469,0.13815784454345703,-0.7018297910690308
1789156619797604000,7.44760400390625,0.8610897064208984,0.5452485084533691,-0.471950888633728
1789156619857540600,7.50754052734375,-0.27700328826904297,0.7881464958190918,-0.4521350860595703
1789156619917477000,7.56747705078125,1.560297966003418,0.06827402114868164,0.9507710933685303
1789156619977413600,7.62741357421875,0.9145107269287109,-1.0838687419891357,-1.568528413772583
1789156620037380900,7.687380859375,-0.33730411529541016,-0.7334208488464355,-0.399106502532959
1789156620097347800,7.747347900390625,-0.4968719482421875,-1.129133701324463,-0.5014077425003052
1789156620157284400,7.807284423828125,-0.43256092071533203,-1.0143704414367676,-0.16641080379486084
1789156620217251300,7.867251220703125,-0.3998136520385742,-0.30759286880493164,0.10353070497512817
1789156620277187800,7.927187744140625,-0.8626446723937988,0.042496681213378906,-0.08514440059661865
1789156620337185500,7.987185546875,1.0072011947631836,0.23105335235595703,0.6117005348205566
1789156620397122000,8.0471220703125,0.6236629486083984,0.2877054214477539,0.17489510774612427
1789156620457058600,8.10705859375,1.5089855194091797,0.08700323104858398,1.9823169708251953
1789156620516964600,8.166964599609376,1.9027795791625977,-0.5565836429595947,-0.12680572271347046
1789156620576901000,8.226901123046876,0.18337726593017578,-0.18793296813964844,0.6691349744796753
1789156620636807000,8.286806884765625,-1.567582130432129,-0.2876713275909424,1.2084084749221802
1789156620696743400,8.346743408203125,-2.094944953918457,0.24301862716674805,0.9192171096801758
1789156620756710700,8.406710693359376,-0.7019805908203125,0.35132265090942383,0.6010692119598389
1789156620816616700,8.46661669921875,0.14731788635253906,0.2242450714111328,-0.11053188145160675
1789156620876553200,8.52655322265625,1.3549156188964844,0.16474103927612305,-0.35673120617866516
1789156620936520200,8.586520263671876,0.6315631866455078,0.3238487243652344,-1.3014850616455078
1789156620996487200,8.646487060546875,2.806576728820801,-0.5525026321411133,-0.24127037823200226
1789156621056423700,8.706423583984375,0.7455787658691406,-0.9267871379852295,-1.5908489227294922
1789156621116329700,8.766329833984376,-0.03266143798828125,-0.8959333896636963,-0.4107609689235687
1789156621176266200,8.826266357421876,-0.26718616485595703,-1.1355109214782715,-0.11674290150403976
1789156621276211200,8.926211181640625,-1.5016303062438965,-0.7767333984375,-0.3792218267917633
1789156621336147700,8.986147705078125,0.07580947875976562,-0.2511873245239258,-0.047210559248924255
1789156621396084500,9.04608447265625,2.1769943237304688,-0.6789226531982422,-0.3778979182243347
1789156621535977000,9.18597705078125,1.608973503112793,-1.7447130680084229,0.9408650398254395
1789156621595913500,9.24591357421875,1.8420391082763672,-1.4501855373382568,-0.7878633737564087
1789156621655850000,9.30585009765625,-1.2654619216918945,-0.77823805809021,1.4836007356643677
1789156621715817000,9.36581689453125,-2.7396440505981445,-0.6471381187438965,0.543788492679596
1789156621775753500,9.42575341796875,-1.5114893913269043,-0.2948575019836426,0.525498628616333
1789156621835659500,9.485659423828125,-1.1376595497131348,0.2758622169494629,-0.012003690004348755
1789156621895626500,9.54562646484375,1.0670032501220703,0.5052213668823242,-0.022549569606781006
1789156621955532500,9.605532470703125,0.7537775039672852,0.36481380462646484,-2.0140299797058105
1789156622015499500,9.66549951171875,3.981130599975586,-0.006424903869628906,-0.11491256952285767
1789156622075466800,9.725466796875,1.3123245239257812,-0.9208898544311523,-2.1524813175201416
1789156622135372800,9.785372802734376,0.24045181274414062,-0.49658966064453125,-0.42113161087036133
1789156622195339800,9.84533984375,-0.3190956115722656,-1.2854416370391846,0.07174812257289886
1789156622255306800,9.905306640625,-1.5772638320922852,-1.6006507873535156,-1.4778493642807007
1789156622315243300,9.9652431640625,-0.8897733688354492,-1.1046459674835205,-0.30777841806411743
1789156622375179800,10.0251796875,0.014531135559082031,-0.8615412712097168,-0.3945524990558624
1789156622435116300,10.0851162109375,1.0088176727294922,-0.6981973648071289,0.19578129053115845
1789156622495052800,10.145052734375,1.0583200454711914,-0.12145614624023438,0.9400065541267395
1789156622554989300,10.2049892578125,3.995298385620117,-1.5891368389129639,-0.7756167650222778
1789156622614925800,10.26492578125,2.0588598251342773,-1.5065946578979492,-0.9031556844711304
1789156622674893000,10.32489306640625,-0.7352533340454102,-0.6250467300415039,1.2718020677566528
1789156622734860000,10.384860107421876,-1.4234795570373535,-0.7098369598388672,1.0139497518539429
1789156622794796000,10.444796142578125,-1.235323429107666,-0.5806388854980469,0.8748879432678223
1789156622914638600,10.564638671875,0.12435436248779297,0.05803489685058594,-0.13367876410484314
1789156622974575000,10.6245751953125,1.8704643249511719,-0.1410689353942871,-0.2179168462753296
1789156623034511600,10.68451171875,1.7149438858032227,-0.15815353393554688,1.075899600982666
1789156623094448000,10.7444482421875,0.5223417282104492,-1.40274977684021,-0.4215677082538605
1789156623154415000,10.8044150390625,0.6956043243408203,-0.36893320083618164,-1.0582786798477173
1789156623214321200,10.864321044921875,-0.035511016845703125,-1.5396573543548584,-0.1358613818883896
1789156623274257700,10.924257568359375,-1.0099396705627441,-0.8639066219329834,-0.6089822053909302
1789156623334163700,10.984163818359375,-1.1492090225219727,-0.8709237575531006,-0.2811228036880493
1789156623394130700,11.044130615234375,-0.6296005249023438,-0.7676324844360352,0.13585235178470612
1789156623454067200,11.104067138671875,0.7047004699707031,0.1057443618774414,-0.37192317843437195
1789156623514003700,11.164003662109375,1.0665225982666016,-0.500856876373291,-0.3152889311313629
1789156623573970700,11.223970703125,2.644205093383789,-0.17329692840576172,0.4728456735610962
1789156623633907500,11.283907470703125,1.5757770538330078,-1.8108177185058594,0.3370225727558136
1789156623693844000,11.343843994140625,0.1825103759765625,-1.0807304382324219,0.005094289779663086
1789156623793666800,11.443666748046875,-1.542212963104248,-0.4718446731567383,0.44674044847488403
1789156623853603300,11.503603271484375,-1.988992691040039,0.08054542541503906,0.038029611110687256
1789156623913539800,11.563539794921875,-0.5024557113647461,0.0018415451049804688,0.4439607858657837
1789156623973507000,11.623507080078125,1.0463438034057617,0.42157840728759766,-0.8734610080718994
1789156624033474000,11.68347412109375,2.3189897537231445,0.370114803314209,-0.3226540684700012
1789156624093410600,11.74341064453125,1.878779411315918,0.5364747047424316,1.0015010833740234
1789156624153316600,11.803316650390625,0.892085075378418,-1.6365933418273926,-0.6456648707389832
1789156624273189600,11.923189697265625,-0.5152826309204102,-1.1379656791687012,0.45414602756500244
1789156624333156600,11.983156494140625,-1.6341795921325684,-0.7194180488586426,-0.7111228704452515
1789156624393093000,12.043093017578125,-1.350480079650879,-0.4990241527557373,-0.4979206621646881
1789156624453060000,12.10306005859375,-1.0516791343688965,-0.29527807235717773,-0.8861376643180847
1789156624512996600,12.16299658203125,0.5986948013305664,0.054547786712646484,-0.3473736047744751
1789156624572933000,12.22293310546875,1.411921501159668,0.06475591659545898,0.46500545740127563
1789156624632930800,12.282930908203125,2.163839340209961,-0.014267921447753906,1.0704870223999023
1789156624692897800,12.342897705078125,1.9328575134277344,-0.9593167304992676,1.115065336227417
1789156624752864800,12.40286474609375,0.9166984558105469,-0.8785009384155273,0.3667523264884949
1789156624812832000,12.46283203125,-0.3865985870361328,-0.7240533828735352,1.3787884712219238
1789156624872737800,12.52273779296875,-1.7227497100830078,-0.47969508171081543,1.199385643005371
1789156624932735500,12.582735595703125,-1.8676176071166992,-0.09332656860351562,0.7520307898521423
1789156624992672000,12.642672119140625,-1.0685253143310547,-0.11459112167358398,0.5847821831703186
1789156625052608500,12.7026083984375,0.4170074462890625,0.22039031982421875,-0.4955720901489258
1789156625112514600,12.7625146484375,0.811427116394043,0.32322263717651367,-0.25665736198425293
1789156625172451000,12.822451171875,1.403304100036621,1.1010828018188477,1.289686679840088
1789156625232387600,12.8823876953125,1.511439323425293,-0.5462298393249512,0.8143357038497925
1789156625292293600,12.942293701171875,0.15789413452148438,0.017639636993408203,0.20552140474319458
1789156625352230100,13.002230224609375,-0.08324909210205078,-1.1471776962280273,0.7318751811981201
1789156625412166700,13.062166748046875,-0.4933614730834961,-1.1250176429748535,-0.22967946529388428
1789156625472133600,13.122133544921875,-1.0875344276428223,-0.5758559703826904,0.6317759156227112
1789156625532070100,13.182070068359375,-1.1384644508361816,-0.4212803840637207,-0.117031991481781
1789156625592006700,13.242006591796875,1.2060651779174805,-0.1618967056274414,0.5300295948982239
1789156625651973600,13.3019736328125,2.114980697631836,-0.5960793495178223,1.069366693496704
1789156625711910100,13.36191015625,0.9713630676269531,0.06745529174804688,1.4168684482574463
1789156625771847000,13.421846923828125,1.8446273803710938,-1.133174180984497,-0.07637965679168701
1789156625831783400,13.481783447265625,0.7181577682495117,-1.1804311275482178,0.03722786903381348
1789156625891720000,13.541719970703125,0.5171632766723633,-0.8287575244903564,1.5455111265182495
1789156625951656400,13.601656494140625,-0.6909856796264648,-0.5775010585784912,1.0647988319396973
1789156626071560000,13.721559814453125,-1.3644509315490723,-0.2606682777404785,1.0112181901931763
1789156626131527000,13.78152685546875,0.744415283203125,0.12699413299560547,0.0706171989440918
1789156626191494000,13.841493896484375,1.8034086227416992,0.23647689819335938,0.6260830163955688
1789156626251430700,13.9014306640625,1.2032756805419922,0.9109206199645996,1.1615145206451416
1789156626311397600,13.961397705078125,2.416518211364746,-0.9394969940185547,-0.13088834285736084
1789156626371303700,14.0213037109375,0.7283182144165039,0.2636294364929199,-0.5706976652145386
1789156626431209500,14.08120947265625,-0.8595271110534668,-0.6032183170318604,1.029852271080017
1789156626491146000,14.14114599609375,-1.2892370223999023,-0.6785640716552734,0.530864953994751
1789156626551082800,14.201082763671875,-0.8072400093078613,-0.4978818893432617,0.49106675386428833
1789156626611049700,14.2610498046875,-0.9843306541442871,-0.22082185745239258,0.22030359506607056
1789156626710933800,14.360933837890625,0.7718353271484375,-0.10185718536376953,-0.1301904320716858
1789156626770870300,14.420870361328125,2.2209510803222656,-0.5620684623718262,0.5136054754257202
1789156626830806800,14.480806884765625,0.9342470169067383,0.0597376823425293,1.053431510925293
1789156626890743300,14.540743408203125,1.5394134521484375,-0.46423912048339844,0.05777817964553833
1789156626950679800,14.6006796875,-0.42932987213134766,-0.559647798538208,0.7405692338943481
1789156627010646800,14.660646728515625,-1.6509075164794922,-0.467360258102417,0.2632999122142792
1789156627070613800,14.72061376953125,-1.8291068077087402,-0.03613424301147461,0.649261474609375
1789156627130581000,14.7805810546875,-1.5193262100219727,0.10716533660888672,0.669800877571106
1789156627230495500,14.88049560546875,1.2030792236328125,0.6077103614807129,-0.37311577796936035
1789156627290462500,14.94046240234375,1.7758779525756836,0.789839506149292,-1.544355869293213
1789156627390438100,15.040438232421875,1.4080018997192383,-0.5625972747802734,-0.5609648823738098
1789156627450405000,15.100405029296875,0.3223609924316406,0.5444879531860352,0.0290144681930542
1789156627510341600,15.160341552734375,-0.648406982421875,-0.7404301166534424,-0.03157085180282593
1789156627570278100,15.220278076171875,-1.6133241653442383,-0.01900768280029297,-0.09301775693893433
1789156627630214700,15.280214599609375,-2.1707663536071777,0.1374359130859375,-0.2593666911125183
1789156627690181600,15.340181640625,-0.4520597457885742,0.2440347671508789,-0.018154799938201904
1789156627750148900,15.40014892578125,0.4535198211669922,0.20127105712890625,-0.1004868745803833
1789156627810077700,15.46007763671875,1.4100608825683594,0.12788105010986328,-0.19777947664260864
1789156627869983700,15.519983642578126,1.3403339385986328,-0.1408252716064453,0.9708616137504578
1789156627929950700,15.57995068359375,2.221695899963379,-0.9580833911895752,-0.1834825873374939
1789156627989887200,15.63988720703125,-0.4594259262084961,-0.44025111198425293,0.36355894804000854
1789156628049854200,15.699854248046876,-1.3182344436645508,-0.2031259536743164,0.632830023765564
1789156628109790700,15.759790771484376,-2.499889850616455,0.13545632362365723,0.46768638491630554
1789156628169696800,15.81969677734375,-1.3015737533569336,0.4300053119659424,0.4695802330970764
1789156628229602800,15.879602783203126,-0.4178962707519531,0.6790182590484619,-0.03918612003326416
1789156628289539300,15.939539306640626,1.0751657485961914,0.10208415985107422,-0.3638158440589905
1789156628349475800,15.999475830078126,1.0516347885131836,0.6689896583557129,-1.3265786170959473
1789156628409442800,16.05944287109375,3.7163524627685547,-0.7401518821716309,0.856208860874176
1789156628469410000,16.11941015625,0.9371881484985352,-0.4292428493499756,-0.8716987371444702
1789156628529315800,16.17931591796875,-0.664520263671875,-0.964585542678833,1.079540729522705
1789156628589283000,16.239282958984376,-0.9948806762695312,-1.1349077224731445,-0.03421592712402344
1789156628649219600,16.299219482421876,-1.932642936706543,-0.9673840999603271,0.0957680344581604
1789156628709156000,16.359156005859376,-0.8293747901916504,-0.8371248245239258,-0.01759469509124756
1789156628769123000,16.419123046875,0.6685342788696289,-0.46419715881347656,-0.006531447172164917
1789156628829029000,16.479029052734376,1.2344427108764648,0.4343392848968506,-0.09576597809791565
1789156628888935200,16.53893505859375,2.256948471069336,0.2649209499359131,1.1258587837219238
1789156628948902100,16.598902099609376,2.995969772338867,-1.8296877145767212,-0.44607460498809814
1789156629008808200,16.65880810546875,-0.19637298583984375,-0.42681217193603516,0.670698881149292
1789156629068744700,16.71874462890625,-2.045398235321045,-0.27234768867492676,0.3594508767127991
1789156629128681200,16.77868115234375,-2.6209330558776855,0.046189308166503906,0.611417293548584
1789156629188556500,16.838556640625,-1.3942241668701172,0.2560305595397949,0.7379392981529236
1789156629248493000,16.8984931640625,-0.4117870330810547,0.6804540157318115,0.10659915208816528
1789156629308429800,16.958429931640627,1.2699050903320312,0.8956325054168701,-0.14445799589157104
1789156629368366300,17.018366455078127,1.1441478729248047,1.1447618007659912,-0.3973016142845154
1789156629428302800,17.078302734375,2.6727447509765625,0.0028188228607177734,0.9117914438247681
1789156629488239400,17.1382392578125,0.6651582717895508,-0.22304892539978027,-1.142399549484253
1789156629548145400,17.1981455078125,-0.06563186645507812,-0.2725224494934082,1.1602907180786133
1789156629648029400,17.298029541015627,-1.8057150840759277,-0.4469168186187744,0.18576186895370483
1789156629707966000,17.357966064453127,-2.611626625061035,-0.1486344337463379,0.1350279450416565
1789156629767933000,17.417932861328126,-0.5423030853271484,-0.10509300231933594,-0.18318802118301392
1789156629827869400,17.477869384765626,0.7996501922607422,-0.08625507354736328,0.4040050506591797
1789156629887775500,17.537775390625,1.6196517944335938,0.1505112648010254,-0.056882619857788086
1789156629947712000,17.5977119140625,2.359689712524414,-0.05913829803466797,1.3352665901184082
1789156630007648500,17.6576484375,1.8168706893920898,-1.0075950622558594,-0.8240107297897339
1789156630067585000,17.7175849609375,-1.1064529418945312,-0.4598355293273926,1.4283941984176636
1789156630127552000,17.777552001953126,-1.8940539360046387,-0.27634572982788086,0.363031804561615
1789156630187458000,17.8374580078125,-2.2724480628967285,-0.017353057861328125,0.4217495322227478
1789156630247394600,17.89739453125,-1.014561653137207,0.3853321075439453,0.6785515546798706
1789156630307361500,17.957361572265626,-0.023540496826171875,0.7279911041259766,-0.3893798589706421
1789156630367328500,18.01732861328125,3.010896682739258,0.7042250633239746,0.08939462900161743
1789156630427265300,18.077265380859377,0.7293214797973633,0.7659118175506592,0.6978015303611755
1789156630487232300,18.137232177734376,3.8287200927734375,-1.055572748184204,-0.7803753614425659
1789156630547199200,18.19719921875,0.08290481567382812,0.1888256072998047,-0.048277974128723145
1789156630607135700,18.2571357421875,-1.3230562210083008,-1.1882948875427246,0.23503565788269043
1789156630667011300,18.31701123046875,-1.8666167259216309,-0.7395448684692383,0.07201969623565674
1789156630726947800,18.37694775390625,-2.7772555351257324,-0.7370014190673828,-0.34668219089508057
1789156630786884400,18.43688427734375,-0.7742047309875488,-0.31586217880249023,0.08713525533676147
1789156630846881800,18.4968818359375,0.23981094360351562,0.07628679275512695,-0.11417418718338013
1789156630906818300,18.556818359375,1.6002540588378906,0.3239784240722656,-0.37140488624572754
1789156630966754800,18.6167548828125,1.2416362762451172,0.13556289672851562,1.4532263278961182
1789156631026691300,18.67669140625,2.65291690826416,-1.0079967975616455,-0.12384617328643799
1789156631086627800,18.7366279296875,-0.0021162033081054688,-0.1945664882659912,0.6553701162338257
1789156631146534000,18.796533935546876,-1.3547897338867188,-0.2995455265045166,0.32933151721954346
1789156631206470400,18.856470458984376,-2.8345322608947754,0.28707051277160645,0.8013241291046143
1789156631266407000,18.916406982421876,-1.9406142234802246,0.47589683532714844,0.4483973979949951
1789156631326343400,18.976343505859376,-1.0116643905639648,0.8810892105102539,0.24530953168869019
1789156631386280000,19.036280029296876,1.2803363800048828,0.6066136360168457,-0.5952606797218323
1789156631446247200,19.0962470703125,2.3187217712402344,0.9127678871154785,-1.2895560264587402
1789156631506183700,19.15618359375,2.667452812194824,0.1841278076171875,0.6089584827423096
1789156631566150700,19.216150634765626,1.2127370834350586,-0.9537878036499023,-1.6294910907745361
1789156631626087200,19.276087158203126,-0.2683095932006836,-0.6406950950622559,0.9891210794448853
1789156631686054100,19.33605419921875,-1.0490708351135254,-1.0219078063964844,-0.2078271508216858
1789156631745960200,19.395960205078126,-1.5503425598144531,-0.9549460411071777,0.040106236934661865
1789156631805896700,19.455896728515626,-1.934730052947998,-0.599529504776001,-0.05923253297805786
1789156631865802800,19.515802734375,-0.1082763671875,-0.2157149314880371,-0.4074466824531555
1789156631925739300,19.5757392578125,0.8567409515380859,-0.08472156524658203,0.49433818459510803
1789156631985706200,19.635706298828126,0.6611747741699219,0.4814918041229248,0.24609388411045074
1789156632045673500,19.695673583984377,3.939751625061035,-0.3318600654602051,1.0938327312469482
1789156632105610000,19.75560986328125,2.3634700775146484,-0.8266904354095459,-0.8068891763687134
1789156632165515800,19.815515869140626,-0.8523721694946289,-0.342679500579834,1.2382407188415527
1789156632225421800,19.875421875,-2.3377718925476074,-0.5909349918365479,0.93366938829422
1789156632285389000,19.93538916015625,-2.860379695892334,-0.20238685607910156,0.9249760508537292
1789156632345325600,19.99532568359375,-1.8375129699707031,-0.0031239986419677734,0.72141432762146
1789156632405292500,20.05529248046875,-0.5468521118164062,0.6078062057495117,0.36083632707595825
1789156632465229000,20.11522900390625,1.3238840103149414,1.055483341217041,-0.029878675937652588
1789156632525165600,20.17516552734375,0.8212642669677734,1.3427059650421143,-0.3464154005050659
1789156632585102000,20.23510205078125,2.7817201614379883,0.4942162036895752,-0.7542431950569153
1789156632645069000,20.295069091796876,1.7893028259277344,-0.6731889247894287,-2.2354471683502197
1789156632704975000,20.35497509765625,-0.6208696365356445,-0.08520841598510742,-0.13835418224334717
1789156632764911600,20.41491162109375,-0.9725818634033203,-0.6920294761657715,-0.18785029649734497
1789156632824817700,20.474817626953126,-1.6567678451538086,-0.6503221988677979,-0.22562193870544434
1789156632884767500,20.534767578125,-2.2568259239196777,-0.0014145374298095703,-0.41334426403045654
1789156632944734500,20.594734375,-0.5250663757324219,0.5290625095367432,-0.4689997136592865
1789156633004671000,20.6546708984375,1.0504226684570312,-0.062090396881103516,0.7260974645614624
1789156633064607500,20.714607421875,2.701260566711426,0.23255634307861328,0.7693119049072266
1789156633124574500,20.774574462890627,2.5060977935791016,-0.7042078971862793,0.8765225410461426
1789156633184511000,20.834510986328127,0.5676460266113281,-0.9848959445953369,-0.30783259868621826
1789156633304353500,20.954353515625,-1.8674592971801758,-0.75213623046875,-0.39616429805755615
1789156633364259600,21.014259521484377,-1.9771041870117188,-0.7223355770111084,-0.6816321015357971
1789156633424226600,21.0742265625,-1.8250203132629395,0.0823068618774414,-0.6507141590118408
1789156633484132600,21.134132568359377,0.09926414489746094,0.12700462341308594,-1.0487840175628662
1789156633544069000,21.194069091796877,0.9304924011230469,0.5847969055175781,-1.560908555984497
1789156633604005600,21.254005615234377,1.3575763702392578,0.7531628608703613,-1.90463125705719
1789156633663942100,21.313942138671877,3.814164161682129,-1.5574169158935547,-1.6991850137710571
1789156633723878700,21.373878662109377,2.5784482955932617,-0.909928560256958,-2.542740821838379
1789156633783876400,21.43387646484375,0.057891845703125,-2.0676040649414062,-0.6027246713638306
1789156633843843300,21.49384326171875,-1.153182029724121,-1.8723714351654053,-0.6164265871047974
1789156633903719000,21.553718994140624,-2.234778881072998,-1.5111198425292969,-1.1691502332687378
1789156633963625000,21.613625,-0.23727798461914062,-1.1676621437072754,-0.33339250087738037
1789156634023530800,21.67353076171875,-0.04261589050292969,-0.48712992668151855,-0.9767305850982666
1789156634083498000,21.733498046875,1.7059755325317383,-0.6477901935577393,-1.0794422626495361
1789156634143404000,21.793404052734374,2.0801305770874023,-0.1512742042541504,0.9422957897186279
1789156634203371000,21.85337109375,2.7296876907348633,-1.4143133163452148,-1.3645331859588623
1789156634263338000,21.913337890625,0.4455070495605469,-0.7189099788665771,-0.2569708824157715
1789156634323305000,21.973304931640627,-1.3787341117858887,-0.8487052917480469,-0.536774754524231
1789156634383241500,22.033241455078127,-2.030491352081299,-0.3114626407623291,0.2143210917711258
1789156634443178000,22.093177978515627,-2.000532627105713,-0.0855567455291748,-0.3034855127334595
1789156634543031600,22.193031494140627,0.1573925018310547,0.3039357662200928,-0.4835759997367859
1789156634602968000,22.252968017578127,1.5125741958618164,0.40009260177612305,-0.5262504816055298
1789156634662874000,22.3128740234375,1.784358024597168,0.2698850631713867,-1.0610462427139282
1789156634722810600,22.372810546875,2.567202568054199,-1.4721879959106445,-1.6746840476989746
1789156634782747100,22.4327470703125,0.852818489074707,-0.1101539134979248,-1.3420147895812988
1789156634842653200,22.492653076171877,-0.9613103866577148,-1.5769779682159424,-0.8089157938957214
1789156634902559200,22.552559326171874,-1.3739309310913086,-1.165846347808838,-0.7727319598197937
1789156634962495700,22.612495849609374,-2.2317824363708496,-1.195563554763794,-1.750232458114624
1789156635022401800,22.67240185546875,0.30631256103515625,-0.9868543148040771,-0.598731517791748
1789156635082307800,22.732307861328124,-0.13876724243164062,-0.14670181274414062,0.18126565217971802
1789156635142274800,22.79227490234375,1.4986906051635742,-0.3468649387359619,0.36842578649520874
1789156635202180900,22.852180908203124,0.8779706954956055,-0.36958861351013184,2.9062130451202393
1789156635262117400,22.912117431640624,1.2822351455688477,-1.888144850730896,0.2366984784603119
1789156635321992700,22.97199267578125,1.4563055038452148,-0.336658239364624,-0.06673793494701385
1789156635381960000,23.0319599609375,-0.12758350372314453,-0.27692699432373047,-0.3099290132522583
1789156635441865700,23.09186572265625,-2.2131567001342773,0.254868745803833,0.31293797492980957
1789156635501802200,23.15180224609375,-1.9548492431640625,0.3415377140045166,0.6291279196739197
1789156635561738800,23.21173876953125,-0.9125795364379883,0.5034029483795166,0.778262734413147
1789156635621675500,23.271675537109374,1.4458036422729492,0.5169615745544434,-0.2973569631576538
1789156635681642500,23.331642578125,1.8892898559570312,0.8762326240539551,-0.2852899432182312
1789156635741579000,23.3915791015625,2.726914405822754,0.26581263542175293,0.607869029045105
1789156635801546000,23.4515458984375,0.20592212677001953,-0.47526073455810547,-1.6013481616973877
1789156635861482500,23.511482421875,-0.6098814010620117,-0.28229308128356934,0.6972216963768005
1789156635921388500,23.571388427734377,-1.3628134727478027,-0.9435715675354004,-0.45689886808395386
1789156635981355500,23.63135546875,-0.9114036560058594,-0.6747126579284668,0.17541734874248505
1789156636041292000,23.6912919921875,-2.202334403991699,-0.1154937744140625,0.005780637264251709
1789156636141176000,23.791176025390627,1.2430448532104492,-0.26438164710998535,-0.4353124499320984
1789156636201082000,23.85108203125,1.5469512939453125,-0.09746956825256348,-0.04249430447816849
1789156636261018600,23.9110185546875,2.830643653869629,-0.2516627311706543,1.0082930326461792
1789156636320985600,23.970985595703127,1.9534931182861328,-1.608086347579956,-0.9601514339447021
1789156636380922000,24.030922119140627,-0.7391443252563477,-0.40073323249816895,0.6793754696846008
1789156636440889300,24.090889404296874,-2.1719679832458496,-0.31569528579711914,0.9277530312538147
1789156636500825900,24.150825927734374,-1.0687026977539062,-0.5594749450683594,0.4525870978832245
1789156636560792800,24.210792724609377,-2.31170654296875,0.3844935894012451,1.06879460811615
1789156636620759800,24.270759765625,-1.3136463165283203,0.38526153564453125,0.9946258068084717
1789156636680696300,24.3306962890625,0.2297220230102539,0.7587997913360596,-0.518984854221344
1789156636740632800,24.3906328125,3.441415786743164,0.8264727592468262,-0.9574059247970581
1789156636840578000,24.490578125,0.3691720962524414,-0.48651862144470215,-0.6248549222946167
1789156636900545000,24.550544921875,-0.1226968765258789,-0.4367351531982422,1.1148308515548706
1789156636960451000,24.610451171875,-1.7067155838012695,-1.0240271091461182,0.23264604806900024
1789156637020326400,24.670326416015627,-1.3880462646484375,-0.9926369190216064,0.2123146653175354
1789156637080293600,24.730293701171874,-1.7827444076538086,-0.27622509002685547,0.0435718297958374
1789156637140230100,24.790230224609374,-0.017632484436035156,-0.05238604545593262,0.09475347399711609
1789156637200136200,24.85013623046875,1.8926773071289062,-0.3166968822479248,0.7154451608657837
1789156637260042000,24.9100419921875,1.7816953659057617,-0.569044828414917,-0.0371536910533905
1789156637319978500,24.969978515625,2.573476791381836,-0.5637643337249756,1.503475308418274
1789156637379945700,25.02994580078125,1.2951021194458008,-1.1204466819763184,-0.5593307614326477
1789156637439821000,25.089821044921877,-1.0036792755126953,-0.570965051651001,0.5294446349143982
1789156637499757600,25.149757568359377,-2.8767895698547363,-0.07326817512512207,1.0704371929168701
1789156637559694000,25.209694091796877,-2.480539321899414,0.19642853736877441,0.7234001755714417
1789156637619661300,25.269661376953124,-0.9609689712524414,0.3885335922241211,0.854732871055603
1789156637679597800,25.329597900390624,0.8268003463745117,0.6277282238006592,0.4608338475227356
1789156637739564800,25.389564697265627,2.7828454971313477,0.18577814102172852,-0.3446109890937805
1789156637799501300,25.449501220703127,0.6267166137695312,0.8192892074584961,0.43235981464385986
1789156637859437800,25.509437744140627,2.9890480041503906,-1.3687047958374023,-0.5739448666572571
1789156637919352800,25.569352783203126,0.9828271865844727,0.4349808692932129,-0.42992961406707764
1789156637979259000,25.6292587890625,-1.1303415298461914,-1.0326220989227295,0.6223704218864441
1789156638039195400,25.6891953125,-2.5522661209106445,-0.8494901657104492,0.13901245594024658
1789156638099162400,25.749162353515626,-2.145186424255371,-0.3112785816192627,0.2419365644454956
1789156638159129300,25.80912939453125,-0.47906017303466797,0.5673079490661621,-0.1921209692955017
1789156638219065900,25.86906591796875,1.9381637573242188,0.06231117248535156,0.7998781800270081
1789156638278972000,25.928971923828126,1.200312614440918,-0.4432539939880371,0.7492722272872925
1789156638338908400,25.988908447265626,0.638890266418457,-0.6128268241882324,1.241001844406128
1789156638398875400,26.04887548828125,2.2027692794799805,-1.3047764301300049,-0.18931350111961365
1789156638458781400,26.108781494140626,0.8199977874755859,-0.5991673469543457,-0.2194954752922058
1789156638518687500,26.1686875,-0.9044046401977539,-0.4387400150299072,0.6922023296356201
1789156638578624000,26.2286240234375,-2.469078540802002,-0.47795796394348145,0.8866410851478577
1789156638638591000,26.288591064453126,-2.9552931785583496,0.0017018318176269531,0.7690901160240173
1789156638698527500,26.348527587890626,-1.0660295486450195,0.2114405632019043,0.3954392969608307
1789156638758494700,26.40849462890625,1.15386962890625,0.2773895263671875,-0.0289648175239563
1789156638818461700,26.468461669921876,0.5929479598999023,0.5334796905517578,-0.9526554346084595
1789156638878398200,26.528398193359376,4.842123985290527,-0.11666440963745117,0.7144426703453064
1789156638938395600,26.588395751953126,0.7497186660766602,-0.4090566635131836,-1.5601364374160767
1789156638998332200,26.648332275390626,0.8169164657592773,-0.8133933544158936,1.2784996032714844
1789156639058207700,26.708207763671876,-2.393641471862793,-0.5377531051635742,-0.07394510507583618
1789156639118113800,26.76811376953125,-1.7138957977294922,-0.5347387790679932,0.4344422221183777
1789156639178080800,26.828080810546876,-0.2738075256347656,-0.35393786430358887,-0.2576952576637268
1789156639238017300,26.888017333984376,1.2197256088256836,0.11934232711791992,-0.00906360149383545
1789156639297953800,26.947953857421876,0.8982019424438477,0.03762388229370117,-0.4883515238761902
1789156639357951500,27.007951416015626,0.23303699493408203,0.17903900146484375,2.6379542350769043
1789156639417826800,27.067826904296876,1.290522575378418,-1.3895494937896729,-0.8098311424255371
1789156639477794000,27.1277939453125,1.2976493835449219,-0.1226644515991211,0.6789573431015015
1789156639537730600,27.18773046875,-1.4632792472839355,-0.09802961349487305,1.3824234008789062
1789156639597667000,27.2476669921875,-1.529111385345459,-0.37426018714904785,0.8582181334495544
1789156639657603600,27.307603515625,-2.69454288482666,0.36457157135009766,0.6145866513252258
1789156639757457200,27.40745703125,0.8408098220825195,0.5692131519317627,0.5881950259208679
1789156639817454600,27.46745458984375,4.333121299743652,0.6498711109161377,-1.922014594078064
1789156639877360600,27.527360595703126,-0.6914787292480469,0.6629276275634766,1.5479440689086914
1789156639937297200,27.587297119140626,1.5849504470825195,-0.8407132625579834,-1.3382632732391357
1789156639997264100,27.64726416015625,0.7682104110717773,0.1693410873413086,-0.47276270389556885
1789156640057170200,27.707170166015626,-1.692702293395996,-0.30351853370666504,1.1091729402542114
1789156640117106700,27.767106689453126,-2.0570340156555176,-0.37919068336486816,-0.03772825002670288
1789156640177043200,27.827043212890626,-1.9906821250915527,-0.09947919845581055,-0.28211742639541626
1789156640236979700,27.886979736328126,-0.12621688842773438,-0.04925727844238281,-0.2451905608177185
1789156640296916200,27.946916259765626,1.6391124725341797,-0.48877859115600586,0.9857343435287476
1789156640356852700,28.006852783203126,1.5270709991455078,-0.1640019416809082,1.167323112487793
1789156640416758800,28.0667587890625,2.8190536499023438,-1.2911686897277832,0.35532107949256897
1789156640476695300,28.1266953125,-1.1336379051208496,-0.21531891822814941,1.0304961204528809
1789156640536631800,28.1866318359375,-0.6305990219116211,-0.6414999961853027,1.3049921989440918
1789156640596598800,28.246598876953126,-1.1017565727233887,-0.28368186950683594,0.20978125929832458
1789156640656535300,28.306535400390626,-2.245802402496338,0.20972824096679688,-0.0009603500366210938
1789156640716471800,28.366471923828126,-0.26621055603027344,0.6896016597747803,0.2569665014743805
1789156640776408300,28.426408203125,0.2819852828979492,1.0038235187530518,1.0127969980239868
1789156640836375600,28.48637548828125,1.7567853927612305,1.0104765892028809,-1.9200501441955566
1789156640896312000,28.54631201171875,2.360553741455078,0.7379593849182129,0.7787078022956848
1789156640956218000,28.606218017578126,2.0913162231445312,-0.8564057350158691,-1.558394432067871
1789156641016154600,28.666154541015626,0.21972942352294922,-0.2112126350402832,0.7205211520195007
1789156641076091100,28.726091064453126,-2.161668300628662,-1.0428338050842285,0.6384801864624023
1789156641136027600,28.786027587890626,-2.279998779296875,-0.733262300491333,0.9699844121932983
1789156641195964200,28.845964111328126,-2.2210726737976074,0.0701603889465332,0.6317521333694458
1789156641255961600,28.905961669921876,0.27304649353027344,-0.160980224609375,1.4811142683029175
1789156641315867600,28.96586767578125,1.082411766052246,-0.1786818504333496,0.9588897824287415
1789156641375834600,29.025834716796876,1.3604440689086914,-0.14078044891357422,1.057546854019165
1789156641435771100,29.085771240234376,3.6667327880859375,-1.4818122386932373,-0.35875293612480164
1789156641495677200,29.14567724609375,1.002431869506836,-0.5546026229858398,-1.1434496641159058
1789156641555644200,29.20564404296875,-1.7448949813842773,-0.30596923828125,1.0838338136672974
1789156641615581000,29.265580810546876,-2.452059745788574,-0.48212361335754395,0.6474963426589966
1789156641675517400,29.325517333984376,-1.6068687438964844,-0.3201029300689697,1.2361056804656982
1789156641735423200,29.38542333984375,-0.9318952560424805,0.5913126468658447,0.1041669249534607
1789156641795390500,29.445390380859376,1.8244876861572266,0.8243091106414795,-0.019419431686401367
1789156641855357400,29.505357421875,2.059706687927246,0.9168295860290527,-1.1670701503753662
1789156641915263500,29.565263427734376,1.1262445449829102,0.3874051570892334,0.6588165163993835
1789156641975230500,29.62523046875,0.7702550888061523,-0.5442519187927246,-0.31956470012664795
1789156642075084000,29.725083984375,-0.8184471130371094,-0.9362249374389648,1.0176806449890137
1789156642135051000,29.785051025390626,-1.003373146057129,-0.763373613357544,0.2676841616630554
1789156642194957000,29.84495703125,-2.5962600708007812,-0.4963231086730957,0.15124648809432983
1789156642254893600,29.9048935546875,-0.2898139953613281,-0.033928632736206055,0.5719073414802551
1789156642314830000,29.964830078125,0.48948192596435547,0.5953257083892822,0.7854141592979431
1789156642374766600,30.0247666015625,2.2706737518310547,0.36937832832336426,-0.46380847692489624
1789156642434733600,30.084733642578126,2.6572656631469727,-0.20368003845214844,-0.3825600743293762
1789156642494700800,30.14470068359375,1.2707929611206055,-1.4606728553771973,-0.2563638687133789
1789156642554606600,30.204606689453126,-2.657991409301758,-1.050987958908081,1.1300435066223145
1789156642614543000,30.264543212890626,-1.0300874710083008,-0.9056527614593506,0.9735293388366699
1789156642674449200,30.32444921875,-1.8466987609863281,0.10094594955444336,0.5561858415603638
1789156642734385700,30.3843857421875,-1.5946922302246094,1.1031053066253662,0.6787157654762268
1789156642794322200,30.444322265625,0.5906076431274414,1.2317309379577637,-0.5441100597381592
1789156642854319900,30.50431982421875,2.9494028091430664,0.8058161735534668,-1.2761462926864624
1789156642914273000,30.56427294921875,1.019669532775879,0.7675716876983643,1.4105067253112793
1789156642974240300,30.624240234375,1.8840751647949219,-1.4809589385986328,-1.4433645009994507
1789156643034176800,30.6841767578125,-0.047657012939453125,0.44763827323913574,0.4433685541152954
1789156643094113300,30.74411328125,-2.2303619384765625,-1.0354316234588623,1.127011775970459
1789156643154080300,30.804080322265627,-1.9267001152038574,-1.0917832851409912,-0.7166340351104736
1789156643214016800,30.864016845703127,-2.2770276069641113,-0.30353403091430664,0.06178116798400879
1789156643273922800,30.9239228515625,-0.9349613189697266,-0.1127769947052002,-0.35096418857574463
1789156643333828900,30.983828857421877,2.4097728729248047,-0.24187946319580078,-0.05185776948928833
1789156643393734700,31.043734619140626,2.0771560668945312,0.08480572700500488,0.9733805060386658
1789156643453640700,31.103640625,2.882326126098633,-1.090808391571045,-0.32635951042175293
1789156643513608000,31.16360791015625,0.9957160949707031,-0.9709533452987671,-0.5306809544563293
1789156643573513700,31.223513671875,-2.2361459732055664,-0.8443646430969238,0.32063040137290955
1789156643633481000,31.28348095703125,-1.2418594360351562,-0.006442546844482422,0.27508705854415894
1789156643693448000,31.343447998046877,-1.9399356842041016,0.7471864223480225,1.2726930379867554
1789156643753415000,31.403414794921876,-0.5402450561523438,1.0528345108032227,0.7802774310112
1789156643813321000,31.463321044921877,1.5805482864379883,0.9543747901916504,0.13462352752685547
1789156643873257500,31.523257568359377,3.579892158508301,0.5591249465942383,-0.6526906490325928
1789156643933163500,31.58316357421875,2.158942222595215,0.04089617729187012,-0.10865265130996704
1789156643993161000,31.643160888671876,-0.5281286239624023,-0.7352101802825928,-1.0376126766204834
1789156644053097500,31.703097412109376,-1.4280376434326172,-0.1292705535888672,0.1421506702899933
1789156644113003500,31.76300341796875,-1.7111682891845703,-1.213834524154663,0.6538807153701782
1789156644172940000,31.82293994140625,-2.4704575538635254,-0.6757478713989258,-0.09618979692459106
1789156644232876500,31.88287646484375,-1.5316829681396484,-0.0076143741607666016,-0.19968333840370178
1789156644292813000,31.94281298828125,-0.8310565948486328,0.07294106483459473,-0.38663622736930847
1789156644352749600,32.00274951171875,2.630063056945801,-0.1387009620666504,-0.009618610143661499
1789156644412686000,32.06268603515625,4.119656562805176,-0.2325587272644043,-0.011207103729248047
1789156644472622600,32.12262255859375,0.8310136795043945,-0.6956512928009033,0.6454118490219116
1789156644532528600,32.18252856445312,0.4773111343383789,-0.8138675689697266,0.2620859444141388
1789156644592465200,32.24246508789062,-0.9144668579101562,-0.4742007255554199,0.9961484670639038
1789156644652432400,32.30243237304688,-2.1533102989196777,-0.04855155944824219,0.7576735019683838
1789156644712338200,32.36233813476562,-1.4152417182922363,0.40560436248779297,0.5838055610656738
1789156644772274700,32.42227465820312,-0.019400596618652344,0.8734471797943115,0.16667428612709045
1789156644832211500,32.48221142578125,0.24503231048583984,0.6683635711669922,-0.02802768349647522
1789156644892148000,32.54214794921875,1.7039566040039062,0.395021915435791,-0.5427929162979126
1789156644952084500,32.60208447265625,-0.12773704528808594,-0.44057607650756836,1.8285284042358398
1789156645011959800,32.66195971679687,0.9974813461303711,-1.316498041152954,-0.6850552558898926
1789156645071865900,32.72186596679688,0.4918203353881836,-0.21155190467834473,0.2991708815097809
1789156645131772000,32.78177197265625,-1.1395463943481445,-0.921715497970581,0.5987263917922974
1789156645191739000,32.84173876953125,-2.136319637298584,-0.5554368495941162,0.6337840557098389
1789156645251645000,32.90164501953125,-0.17702865600585938,-0.32512450218200684,-0.2316293567419052
1789156645311612000,32.96161181640625,0.6131668090820312,0.02543783187866211,-0.5167011618614197
1789156645411496000,33.06149584960937,1.3499670028686523,0.5374910831451416,-0.22126448154449463
1789156645471463000,33.121462890625,0.7500705718994141,-0.24518847465515137,1.0311020612716675
1789156645531399700,33.18139965820313,1.4658489227294922,-0.9029314517974854,-0.6402922868728638
1789156645591305500,33.24130541992187,-0.5258827209472656,-0.3438069820404053,1.0397319793701172
1789156645651242000,33.30124194335937,-1.882453441619873,-0.07515311241149902,0.8455816507339478
1789156645711209200,33.36120922851563,-2.4792041778564453,0.17840909957885742,0.8354783058166504
1789156645771145700,33.42114575195313,-1.7594060897827148,0.1451432704925537,-0.07860231399536133
1789156645831082200,33.48108227539063,-0.2673149108886719,0.5254368782043457,0.432331383228302
1789156645890988300,33.54098828125,1.857004165649414,0.47167539596557617,-0.015266060829162598
1789156645950924800,33.6009248046875,0.8548812866210938,0.7976901531219482,0.9298619031906128
1789156646010891800,33.66089184570313,3.017764091491699,-1.3639283180236816,-0.8535481095314026
1789156646070858800,33.72085864257812,-0.04109477996826172,0.18520855903625488,-1.0893430709838867
1789156646130795300,33.78079516601562,-0.9385499954223633,-0.5915811061859131,0.903150200843811
1789156646190731800,33.84073168945312,-0.7208061218261719,-0.09056472778320312,-0.3200986981391907
1789156646250637800,33.90063793945313,-2.0335564613342285,0.09984803199768066,-0.55002760887146
1789156646310544000,33.9605439453125,-0.739105224609375,0.4200248718261719,0.3265944719314575
1789156646370480400,34.02048046875,-0.1470327377319336,0.015848398208618164,-0.282906711101532
1789156646430447400,34.080447265625,1.1462221145629883,0.3367600440979004,-0.30959728360176086
1789156646490353400,34.140353515625,3.4567995071411133,0.16830825805664062,2.0869555473327637
1789156646550320400,34.2003203125,2.211841583251953,-1.3109192848205566,-1.282423496246338
1789156646610226400,34.26022631835937,-0.0628213882446289,-0.08818268775939941,1.5434894561767578
1789156646670132500,34.32013256835938,-1.6670212745666504,0.10530638694763184,1.1629486083984375
1789156646730069000,34.38006909179688,-1.178750991821289,-0.29028940200805664,0.4416630268096924
1789156646790036000,34.44003588867187,-1.555124282836914,-0.08527159690856934,-0.0430569052696228
1789156646850003200,34.50000317382813,-0.6583003997802734,0.35340380668640137,0.2263193130493164
1789156646909939700,34.55993969726563,0.3372764587402344,0.030312061309814453,-0.997245728969574
1789156646969845500,34.61984545898437,0.11754512786865234,0.5026454925537109,-0.632668673992157
1789156647069790700,34.71979077148438,1.233902931213379,-0.6177916526794434,-0.5397503972053528
1789156647129727200,34.77972729492188,0.9769372940063477,-0.7710931301116943,-0.2146313190460205
1789156647189694200,34.83969409179687,-0.728856086730957,-0.6886239051818848,-0.30958735942840576
1789156647249630700,34.89963061523437,-1.3218255043029785,-0.48183560371398926,-0.011590957641601562
1789156647309567200,34.95956713867187,-1.6051268577575684,-0.17934632301330566,0.0018802881240844727
1789156647369503700,35.01950366210937,-0.008435249328613281,-0.09103655815124512,-0.4496573209762573
1789156647429440300,35.07944018554687,1.4470243453979492,-0.11574053764343262,0.5232581496238708
1789156647489376800,35.13937670898437,0.4040794372558594,0.3986086845397949,0.48072075843811035
1789156647549313300,35.19931323242187,1.079432487487793,-0.07917475700378418,1.9469785690307617
1789156647609219300,35.25921923828125,1.4319725036621094,-0.3534719944000244,-0.8198849558830261
1789156647669186300,35.31918627929687,0.06656265258789062,0.09728646278381348,0.8754838109016418
1789156647729092400,35.37909228515625,-1.1038494110107422,0.452486515045166,0.5659543871879578
1789156647789059600,35.4390595703125,-2.3526744842529297,0.2958106994628906,0.1238340437412262
1789156647849026600,35.49902661132813,-1.101938247680664,0.20072245597839355,0.025761783123016357
1789156647908963000,35.55896313476563,-0.5839605331420898,0.4559175968170166,-0.7460801005363464
1789156647968907000,35.618906982421876,2.06417179107666,0.34343528747558594,-0.6051378846168518
1789156648028874200,35.678874267578124,-0.30115318298339844,0.647850751876831,0.5777860283851624
1789156648088810800,35.738810791015624,2.856593132019043,-0.6627228260040283,-0.7921544313430786
1789156648148777700,35.79877783203125,-0.26675891876220703,0.9385745525360107,-0.35738980770111084
1789156648208744700,35.85874462890625,-0.7036600112915039,-0.38886141777038574,0.42586520314216614
1789156648268681200,35.91868115234375,-1.053217887878418,0.029978036880493164,0.45415061712265015
1789156648328617700,35.97861767578125,-2.6001129150390625,0.36081910133361816,-0.24013960361480713
1789156648388523800,36.038523681640626,0.04220771789550781,0.09417724609375,-0.2876865863800049
1789156648448490800,36.09849072265625,0.17988014221191406,0.22286701202392578,0.02600054442882538
1789156648508396800,36.158396728515626,1.1436386108398438,0.40478086471557617,-0.3353307247161865
1789156648568302800,36.218302734375,1.8273382186889648,-0.44849252700805664,0.3406466245651245
1789156648628239400,36.2782392578125,2.0896549224853516,-0.9844293594360352,-1.3793284893035889
1789156648688175900,36.33817578125,-0.4054374694824219,-0.08558034896850586,1.0090950727462769
1789156648788060000,36.438059814453126,-1.9580183029174805,0.17509818077087402,0.17989212274551392
1789156648847996400,36.497996337890626,-1.8158698081970215,0.38287830352783203,0.23951682448387146
1789156648907933000,36.557932861328126,-1.7522673606872559,0.5312745571136475,0.1507386863231659
1789156648967839000,36.6178388671875,0.566070556640625,0.20809078216552734,-0.5884845852851868
1789156649027775500,36.677775390625,0.9355154037475586,0.9688284397125244,-0.6236711144447327
1789156649087773200,36.737773193359374,1.6374616622924805,0.6865644454956055,0.9728797674179077
1789156649147709700,36.797709716796874,2.669253349304199,-0.45973706245422363,-0.7046622633934021
1789156649207676700,36.8576767578125,-0.3947486877441406,0.7229452133178711,1.0546090602874756
1789156649267552000,36.917552001953126,-1.4785094261169434,-0.2028980255126953,0.3854307532310486
1789156649327488800,36.97748876953125,-1.2988290786743164,-0.07882976531982422,-0.010343492031097412
1789156649387486200,37.037486328125,-2.4356517791748047,0.4699208736419678,0.018286049365997314
1789156649447392300,37.097392333984374,-0.08544254302978516,0.4657785892486572,0.4165516495704651
1789156649507328800,37.157328857421874,1.408761978149414,0.35878586769104004,0.22811800241470337
1789156649567265300,37.217265380859374,1.3660392761230469,0.3816719055175781,-0.005709469318389893
1789156649627201800,37.277201904296874,3.568279266357422,-0.33530211448669434,1.0499614477157593
1789156649687138300,37.33713818359375,-0.13828372955322266,-0.47463178634643555,-0.6561204195022583
1789156649747105300,37.397105224609376,-0.9451313018798828,0.025682449340820312,0.4190243184566498
1789156649807011300,37.45701123046875,-1.5299863815307617,-0.056310415267944336,-0.3070122003555298
1789156649866947800,37.51694775390625,-2.788214683532715,0.47690534591674805,0.1406751573085785
1789156649926884400,37.57688427734375,-1.3693981170654297,0.6791253089904785,0.13382422924041748
1789156649986790400,37.636790283203126,0.14136505126953125,0.5654916763305664,0.3148409128189087
1789156650046757400,37.69675732421875,3.249807357788086,0.08956003189086914,-0.8196313977241516
1789156650106694000,37.75669384765625,0.5917758941650391,0.8706822395324707,-0.7072261571884155
1789156650166600000,37.816599853515626,2.5396108627319336,-0.5686297416687012,-0.10011225938796997
1789156650226536400,37.876536376953126,-0.06729698181152344,0.1420280933380127,-1.2270245552062988
1789156650286473000,37.936472900390626,-1.09765625,-0.9718260765075684,0.25677767395973206
1789156650346440000,37.99643994140625,-2.238163471221924,-0.8527188301086426,0.061405301094055176
1789156650406437600,38.056437744140624,-2.431992530822754,-0.6611008644104004,-0.44028323888778687
1789156650466374100,38.1163740234375,-0.4939393997192383,-0.2547035217285156,-0.23090150952339172
1789156650526280200,38.1762802734375,0.5850601196289062,0.035234689712524414,0.10108941793441772
1789156650586216700,38.236216796875,1.4986467361450195,0.5899343490600586,0.2554781436920166
1789156650646122800,38.296122802734374,2.508298873901367,0.35826539993286133,0.781158983707428
1789156650706089700,38.35608984375,1.3671207427978516,-1.3899965286254883,-0.1534239947795868
1789156650766056700,38.416056640625,-0.08708858489990234,-0.49478960037231445,0.8431220054626465
1789156650865971200,38.51597119140625,-1.5306391716003418,-0.04195594787597656,0.41508638858795166
1789156650925907700,38.57590771484375,-2.26265811920166,0.3964829444885254,-0.43485915660858154
1789156650985813800,38.635813720703126,-0.209259033203125,0.6460516452789307,-0.024533748626708984
1789156651045781000,38.695781005859374,1.018437385559082,0.6527585983276367,-1.013554334640503
1789156651105717500,38.755717529296874,1.8167333602905273,0.9531385898590088,-0.7589244842529297
1789156651165654000,38.815654052734374,-0.11034011840820312,0.9272947311401367,1.039280652999878
1789156651245579500,38.89557958984375,0.9719572067260742,-0.19374442100524902,-1.5704536437988281
1789156651305546500,38.95554638671875,-0.19255352020263672,-0.38169026374816895,0.540233314037323
1789156651365483000,39.01548291015625,-1.4716196060180664,-0.5269153118133545,-0.1469777524471283
1789156651425450000,39.075449951171876,-1.6860661506652832,-0.4549527168273926,-0.6241358518600464
1789156651485356000,39.13535595703125,-1.3231921195983887,0.0512537956237793,-0.2374592423439026
1789156651605259500,39.255259521484376,1.1460857391357422,0.08003735542297363,0.5158542990684509
1789156651665226800,39.315226806640624,1.9072904586791992,0.0043756961822509766,1.6947389841079712
1789156651725224200,39.37522412109375,4.021235466003418,-1.573744297027588,-1.0124281644821167
1789156651785160700,39.43516064453125,0.1247711181640625,-0.5115022659301758,1.0541765689849854
1789156651845127700,39.495127685546876,-3.6422266960144043,-0.21430015563964844,1.1277576684951782
1789156651905095000,39.555094970703124,-0.96148681640625,-0.2981083393096924,0.3516267240047455
1789156651964970200,39.61497021484375,-2.315552234649658,0.4606165885925293,0.4183312654495239
1789156652025028900,39.67502880859375,-0.7381410598754883,1.0355820655822754,0.010450124740600586
1789156652084935000,39.734934814453126,2.029142379760742,1.2893595695495605,0.09118515253067017
1789156652144902000,39.79490185546875,1.7506437301635742,1.2583668231964111,-0.6878504753112793
1789156652204869000,39.854869140625,0.9559803009033203,0.8354003429412842,1.257114052772522
1789156652264805600,39.9148056640625,1.0742168426513672,-0.6401252746582031,-1.3844645023345947
1789156652324711400,39.97471142578125,-0.1743946075439453,0.1082451343536377,1.1062533855438232
1789156652404667600,40.054667724609374,-1.8133893013000488,-0.6226425170898438,-0.27220314741134644
1789156652464634600,40.114634521484376,-1.8417081832885742,-0.29398155212402344,0.27505964040756226
1789156652524540700,40.174540771484374,-0.4979829788208008,-0.17371487617492676,0.30881038308143616
1789156652624455200,40.274455078125,2.568526268005371,0.19245147705078125,0.4257086217403412
1789156652684422100,40.334422119140626,0.9568891525268555,0.38662266731262207,1.7106328010559082
1789156652744389400,40.394389404296874,1.6852045059204102,-0.5185167789459229,0.5804930925369263
1789156652804326000,40.454325927734374,0.31488513946533203,-0.3260173797607422,0.16323255002498627
1789156652864292900,40.51429296875,-1.7242083549499512,-0.5565016269683838,0.3251601755619049
1789156652964177000,40.614177001953124,-1.8696694374084473,-0.31069445610046387,0.362512469291687
1789156653024133400,40.67413330078125,-1.6143913269042969,0.2511780261993408,-0.39418303966522217
1789156653084070000,40.73406982421875,0.19704532623291016,0.719212532043457,-0.05300721526145935
1789156653144006400,40.79400634765625,1.5604534149169922,1.0785315036773682,0.2506062984466553
1789156653203973400,40.853973388671875,1.020864486694336,1.1662063598632812,-0.3627069294452667
1789156653263910000,40.913909912109375,2.2008161544799805,0.6606996059417725,0.7889601588249207
1789156653323877000,40.97387719726562,0.8068094253540039,-0.06866645812988281,-1.2807223796844482
1789156653423761200,41.07376123046875,-1.4141974449157715,-0.521876335144043,0.06844955682754517
1789156653483636500,41.133636474609375,-1.7978196144104004,-0.7456743717193604,0.014960229396820068
1789156653543573000,41.193572998046875,-1.541910171508789,-0.6602721214294434,-0.008461356163024902
1789156653603509500,41.253509521484375,0.5131912231445312,-0.6868941783905029,0.22313347458839417
1789156653663446000,41.313446044921875,1.1332778930664062,-0.4419522285461426,0.7240525484085083
1789156653723413200,41.37341333007812,-0.17623138427734375,0.6750938892364502,0.7970795035362244
1789156653783349800,41.43334985351562,1.7078304290771484,0.17339468002319336,1.6098333597183228
1789156653843255600,41.493255615234375,2.310831069946289,0.3165769577026367,-0.878751814365387
1789156653903161600,41.55316162109375,-1.3392086029052734,0.537445068359375,0.44110947847366333
1789156653963037200,41.613037109375,-1.8906073570251465,0.13138270378112793,0.2878292500972748
1789156654022973700,41.6729736328125,-1.7880144119262695,0.519519567489624,1.3116977214813232
1789156654082940700,41.732940673828125,-2.2066922187805176,0.3112781047821045,-0.012448132038116455
1789156654142877200,41.792877197265625,0.537689208984375,0.6175246238708496,-0.328677237033844
1789156654202875000,41.852875,1.4219493865966797,1.2303862571716309,-0.9308826923370361
1789156654262811400,41.912811279296875,2.4334897994995117,0.5553529262542725,1.03086256980896
1789156654322717400,41.97271752929687,0.9652519226074219,-0.5715415477752686,-1.3608827590942383
1789156654382654000,42.03265405273437,0.9717245101928711,-0.49341368675231934,0.708517849445343
1789156654442590500,42.09259057617187,-1.20831298828125,-0.5474095344543457,0.19837328791618347
1789156654502557400,42.152557373046875,-2.0530405044555664,-0.5852668285369873,-0.1319277435541153
1789156654562463500,42.21246337890625,-1.9739441871643066,-0.0559999942779541,-0.5291224122047424
1789156654622338800,42.2723388671875,0.19779300689697266,0.1681838035583496,-0.4780680239200592
1789156654682275300,42.332275390625,1.5975608825683594,-0.10124325752258301,0.18691226840019226
1789156654742211800,42.3922119140625,0.6404266357421875,0.21213078498840332,0.6268860101699829
1789156654802118000,42.452117919921875,2.33712100982666,-0.10166478157043457,0.32846885919570923
1789156654862054400,42.512054443359375,1.7288818359375,-0.2816786766052246,-0.783905029296875
1789156654921991000,42.571990966796875,-1.8508615493774414,-0.0861053466796875,0.3329525887966156
1789156655021905700,42.67190576171875,-2.4952073097229004,0.29404115676879883,0.3520169258117676
1789156655081842200,42.73184228515625,-1.2102937698364258,0.7278292179107666,0.12433597445487976
1789156655141778700,42.79177880859375,-0.27126407623291016,1.1341986656188965,0.28580242395401
1789156655201715200,42.851715087890625,2.082686424255371,0.37066221237182617,-0.7860054969787598
1789156655261651700,42.911651611328125,0.6719179153442383,0.6525428295135498,0.4900853633880615
1789156655321618700,42.97161865234375,2.355839729309082,-0.4887549877166748,-0.3717010021209717
1789156655381555200,43.03155517578125,0.7881250381469727,0.5410654544830322,-0.5662037134170532
1789156655441461200,43.091461181640625,-1.5971670150756836,-0.6830213069915771,0.006515517830848694
1789156655501428200,43.15142822265625,-1.6679325103759766,-0.5607085227966309,-0.2460695505142212
1789156655561364700,43.21136474609375,-2.892198085784912,-0.2879188060760498,-0.42810824513435364
1789156655621331700,43.271331787109375,0.15354442596435547,-0.20584917068481445,-0.26924216747283936
1789156655681207300,43.331207275390625,0.12328243255615234,-0.12524771690368652,-0.6943769454956055
1789156655741143800,43.391143798828125,2.2482776641845703,0.2754056453704834,-0.14763326942920685
1789156655801110800,43.45111083984375,0.8818197250366211,0.17043328285217285,0.8648608922958374
1789156655861047300,43.51104736328125,3.0561752319335938,-1.2112785577774048,-0.9905441999435425
1789156655920983800,43.57098388671875,-1.1417360305786133,0.10450530052185059,0.3465033173561096
1789156655980920600,43.63092065429687,-1.700636863708496,-0.25154948234558105,0.07363486289978027
1789156656040887600,43.690887451171875,-2.1522388458251953,0.1335456371307373,-0.032680630683898926
1789156656100824000,43.750823974609375,-2.125753402709961,0.623150110244751,0.35778045654296875
1789156656160760600,43.810760498046875,-0.055985450744628906,0.5405063629150391,0.27827537059783936
1789156656220727600,43.8707275390625,2.1939783096313477,0.7051284313201904,-0.8609869480133057
1789156656280664000,43.9306640625,0.8244485855102539,1.2090797424316406,-0.5343594551086426
1789156656340631000,43.990631103515625,3.6101999282836914,-0.29501843452453613,-0.20110854506492615
1789156656400537000,44.050537109375,1.1837873458862305,-0.113861083984375,-2.156857490539551
1789156656460504300,44.11050439453125,-1.252354621887207,-0.4589550495147705,0.7129985094070435
1789156656520410000,44.17041015625,-2.890155792236328,-0.41652417182922363,-0.39591437578201294
1789156656580346600,44.2303466796875,-2.3556790351867676,-0.2571878433227539,-0.5788108110427856
1789156656640283100,44.290283203125,-1.1257991790771484,0.22885417938232422,-0.5624496340751648
1789156656700219600,44.3502197265625,0.48810577392578125,0.5740816593170166,-0.12543649971485138
1789156656760187000,44.410186767578125,2.0634403228759766,-0.07389450073242188,0.10875965654850006
1789156656820153900,44.47015380859375,1.145711898803711,0.05366683006286621,1.942930817604065
1789156656880060000,44.530059814453125,3.7171525955200195,-1.9581022262573242,-0.9062198400497437
1789156656960016000,44.610015869140625,-1.1119585037231445,-0.263988733291626,0.7747198939323425
1789156657019922000,44.669921875,-2.4175548553466797,-0.5952205657958984,0.26278600096702576
1789156657079828000,44.729827880859375,-1.2569079399108887,-0.7521214485168457,-0.1703185737133026
1789156657139795000,44.789794921875,-2.8221020698547363,0.010057926177978516,-0.35190027952194214
1789156657199731500,44.8497314453125,-0.896449089050293,0.5057289600372314,-0.27179068326950073
1789156657259668000,44.90966796875,0.6961784362792969,0.58990478515625,-1.8066747188568115
1789156657319635000,44.969635009765625,1.8422889709472656,0.7649869918823242,-2.117804765701294
1789156657379571500,45.029571533203125,3.315627098083496,-0.2231740951538086,-1.412188172340393
1789156657479455500,45.12945556640625,1.9419527053833008,-0.8003647327423096,-1.3962736129760742
1789156657539392300,45.18939233398437,-0.2486257553100586,-2.0115842819213867,-2.8797788619995117
1789156657599389700,45.2493896484375,-0.5591583251953125,-1.5856162309646606,-1.3773986101150513
1789156657659326200,45.309326171875,-2.384049892425537,-1.4101877212524414,-1.8707759380340576
1789156657719262700,45.3692626953125,-0.2932558059692383,-1.0402703285217285,-0.7760968804359436
1789156657819207700,45.469207763671875,1.3059148788452148,-0.9734890460968018,-1.1128677129745483
1789156657879113700,45.52911376953125,1.1938352584838867,-0.4875175952911377,0.2613380551338196
1789156657939050200,45.58905029296875,3.328723907470703,-1.4913650751113892,-0.7598851919174194
1789156657998956300,45.648956298828125,1.3534975051879883,-0.8374506235122681,-0.05422380566596985
1789156658058926300,45.70892626953125,-2.2357773780822754,-0.2935824394226074,0.1656198501586914
1789156658118862800,45.76886279296875,-1.1038188934326172,0.1390361785888672,0.7934138774871826
1789156658178769000,45.82876879882812,-2.072660446166992,0.2339954376220703,-0.003220532089471817
1789156658238705400,45.88870532226562,-1.098520278930664,0.49556517601013184,0.556635856628418
1789156658318631000,45.968630859375,0.4208507537841797,0.32573437690734863,-0.6878452301025391
1789156658378506500,46.02850659179688,2.208110809326172,0.5295825004577637,-0.7181878089904785
1789156658438473500,46.08847338867187,3.043272018432617,0.25548768043518066,-0.4343716502189636
1789156658498440400,46.1484404296875,1.8710956573486328,-0.6885068416595459,-2.3128693103790283
1789156658558346500,46.20834643554687,1.3323640823364258,-0.262969970703125,-0.6089462637901306
1789156658618313700,46.26831372070313,-1.4656620025634766,-1.2003874778747559,-1.284300684928894
1789156658678280700,46.32828076171875,-2.383974552154541,-0.9704546928405762,-0.49011746048927307
1789156658738217200,46.38821728515625,-2.2515015602111816,-0.5729644298553467,-1.3663972616195679
1789156658798123300,46.44812329101563,-0.4976177215576172,-0.6252648830413818,-0.5618060231208801
1789156658858029000,46.50802905273437,0.5673770904541016,0.1584935188293457,0.03218594193458557
1789156658917935000,46.56793505859375,1.4118061065673828,-0.45557665824890137,0.18747228384017944
1789156658977871600,46.62787158203125,3.841176986694336,-1.2473313808441162,-0.45063138008117676
1789156659037808000,46.68780810546875,2.8770666122436523,-1.6872098445892334,-0.973492443561554
1789156659097714200,46.74771411132812,-1.2421612739562988,-0.735543966293335,0.7616657018661499
1789156659157620200,46.8076201171875,-2.835209846496582,-0.5454533100128174,0.8004906177520752
1789156659217556700,46.867556640625,-2.340332508087158,-0.5648701190948486,0.4814317524433136
1789156659277462800,46.927462890625,-1.3799495697021484,-0.08399486541748047,-0.08225899934768677
1789156659337399300,46.9873994140625,0.5626688003540039,-0.11576175689697266,-0.08744975924491882
1789156659397305300,47.04730541992188,2.394674301147461,0.2112410068511963,-1.120239019393921
1789156659457211400,47.10721142578125,0.4980335235595703,0.5731022357940674,-0.976852297782898
1789156659517148000,47.16714794921875,3.086470603942871,-0.5719690322875977,-1.1964231729507446
1789156659577084400,47.22708447265625,0.008234024047851562,0.10821676254272461,-0.8508656024932861
1789156659636990500,47.28699047851563,-0.2838573455810547,-0.9276618957519531,0.40197014808654785
1789156659696927000,47.34692700195313,-1.1450080871582031,-0.8586299419403076,0.12190455198287964
1789156659756832800,47.40683276367187,-2.064971446990967,-0.8740465641021729,-0.2630382180213928
1789156659816800000,47.46680004882813,-1.060159683227539,-0.405179500579834,-0.14134353399276733
1789156659876706000,47.5267060546875,0.45542335510253906,-0.3502626419067383,-0.36230891942977905
1789156659936642600,47.586642578125,1.5205278396606445,-0.390838623046875,0.7630839347839355
1789156659996548400,47.64654833984375,2.555391311645508,-0.5398681163787842,1.0315320491790771
1789156660096463000,47.74646313476563,0.4098062515258789,-1.064605712890625,0.18535448610782623
1789156660156399600,47.80639965820313,-0.29579830169677734,-0.7911460399627686,0.044639140367507935
1789156660216305700,47.8663056640625,-1.8585104942321777,0.09605860710144043,0.11224091053009033
1789156660276303000,47.92630322265625,-2.714155673980713,0.5100424289703369,0.32285934686660767
1789156660336270000,47.98627001953125,-0.9644880294799805,0.6474502086639404,-0.29964369535446167
1789156660396237300,48.0462373046875,0.18712520599365234,1.0861334800720215,-0.9480915069580078
1789156660456173800,48.106173828125,0.6727018356323242,0.42481279373168945,-1.0253612995147705
1789156660516110300,48.1661103515625,3.0400876998901367,-0.8135533332824707,0.9260057210922241
1789156660576016100,48.22601611328125,3.8211669921875,-1.9170901775360107,-0.15975016355514526
1789156660675839200,48.32583911132812,-0.8170738220214844,-2.049246072769165,0.7918049097061157
1789156660735745300,48.38574536132813,-1.3336968421936035,-1.7520921230316162,0.6526798009872437
1789156660795681800,48.44568188476563,-3.042379379272461,-1.663590669631958,0.5189251899719238
1789156660855618300,48.50561840820313,-1.092414379119873,-1.1368041038513184,0.08843296766281128
1789156660915585300,48.56558520507812,1.3853044509887695,-0.8156952857971191,0.24101464450359344
1789156660975521800,48.62552172851562,2.5877857208251953,-0.6032280921936035,-0.24401307106018066
1789156661035427800,48.685427734375,1.7118854522705078,-1.7678093910217285,2.015894889831543
1789156661095334000,48.745333984375,-0.6513528823852539,-2.020928382873535,-1.4001306295394897
1789156661155300900,48.80530078125,3.251832962036133,-1.2086671590805054,0.11231952905654907
1789156661215267800,48.86526782226562,-0.4114704132080078,-0.23713111877441406,0.14432072639465332
1789156661275235000,48.92523510742188,-1.2401962280273438,0.09346842765808105,0.7148990035057068
1789156661335202000,48.9852021484375,-0.1897907257080078,0.1580362319946289,-0.31828057765960693
1789156661395138600,49.045138671875,0.6696987152099609,0.10707831382751465,0.1567610204219818
1789156661455075000,49.10507495117187,2.417140007019043,-0.14222359657287598,-0.40108856558799744
1789156661555020000,49.20502001953125,1.559584617614746,-0.29250001907348633,0.8347183465957642
1789156661614987300,49.2649873046875,1.8026628494262695,-1.7021517753601074,-1.687402606010437
1789156661674893300,49.32489331054688,-0.9008502960205078,-1.152890682220459,1.2725991010665894
1789156661734860300,49.3848603515625,-1.5687518119812012,-1.294929027557373,0.12516598403453827
1789156661794766300,49.44476635742188,-0.828038215637207,-1.6655523777008057,-0.6058651804924011
1789156661854702800,49.50470288085938,-1.0996284484863281,-1.2332582473754883,-0.3428850769996643
1789156661914609000,49.56460888671875,0.5541467666625977,-1.3001823425292969,-0.5030863881111145
1789156661974575900,49.62457592773438,0.8748846054077148,-0.2677602767944336,0.46178680658340454
1789156662034542800,49.68454296875,-0.3554716110229492,-0.10850024223327637,1.5793479681015015
1789156662094479400,49.74447924804687,1.7682361602783203,-1.0918512344360352,-0.14033620059490204
1789156662154385400,49.80438549804688,0.49881458282470703,0.7061846256256104,0.6115480661392212
1789156662214322000,49.86432202148438,-0.8935356140136719,0.800114631652832,0.46427053213119507
1789156662274258400,49.92425854492188,-1.288111686706543,1.1962954998016357,0.34563979506492615
1789156662334195000,49.98419482421875,-2.4358348846435547,1.3778059482574463,0.13489922881126404
1789156662394131500,50.04413134765625,-0.8934240341186523,1.4794683456420898,-0.31955641508102417
1789156662454068000,50.10406787109375,1.4411287307739258,1.306717872619629,-1.147208571434021
1789156662514004500,50.16400439453125,1.3703413009643555,1.7760224342346191,-1.6242897510528564
1789156662573910500,50.22391064453125,0.7291164398193359,0.8780643939971924,1.2950506210327148
1789156662633847000,50.28384692382812,0.9012556076049805,0.5300226211547852,-1.6762205362319946
1789156662693783600,50.34378344726562,0.9341354370117188,-0.16110479831695557,-0.04030454158782959
1789156662753720000,50.40371997070312,-2.6728196144104004,0.0697484016418457,0.27444201707839966
1789156662813626000,50.46362622070313,-2.6714272499084473,0.09885835647583008,-0.16111275553703308
1789156662873593000,50.52359301757812,-1.5960783958435059,0.522118330001831,0.02081763744354248
1789156662933560000,50.58356005859375,-0.5725593566894531,0.39942097663879395,-0.7259305119514465
1789156662993496800,50.64349682617188,2.811859130859375,0.25473904609680176,0.147133931517601
1789156663053433300,50.70343334960938,0.7735881805419922,0.5095875263214111,0.8756041526794434
1789156663113333200,50.76333325195313,2.1082191467285156,-0.7621923685073853,-0.7754828929901123
1789156663173300500,50.823300537109375,-0.4492454528808594,0.47754883766174316,0.060461223125457764
1789156663233267500,50.88326733398438,-1.7653865814208984,0.5222415924072266,0.24288815259933472
1789156663293234400,50.943234375,-2.843400478363037,0.8534431457519531,0.42447465658187866
1789156663353171000,51.0031708984375,-2.8021950721740723,1.2422301769256592,0.3737497925758362
1789156663413138000,51.06313793945313,-0.3722238540649414,1.2719998359680176,0.21804213523864746
1789156663513052700,51.163052734375,1.314377784729004,1.6808645725250244,-1.017270565032959
1789156663572958500,51.22295849609375,2.794525146484375,1.1066360473632812,1.564939260482788
1789156663672842500,51.32284252929688,0.5648269653320312,1.1358067989349365,0.3836608827114105
1789156663732779000,51.38277905273438,-2.510608673095703,-0.06531023979187012,0.8279722332954407
1789156663792715500,51.44271557617188,-1.0554780960083008,0.11836647987365723,0.014315217733383179
1789156663852652300,51.50265234375,-2.0992379188537598,0.6838150024414062,-0.15516942739486694
1789156663952597200,51.60259716796875,0.43343353271484375,0.6899583339691162,0.35104885697364807
1789156664012533800,51.66253369140625,1.839686393737793,0.3265213966369629,-0.42563939094543457
1789156664072470300,51.72247021484375,0.4950094223022461,0.2716653347015381,1.105621337890625
1789156664132529000,51.78252880859375,1.8181076049804688,-0.5595412254333496,0.49938222765922546
1789156664192435000,51.84243505859375,-1.1165857315063477,0.337810754776001,-0.09784731268882751
1789156664252402000,51.90240185546875,-1.590754508972168,0.2671947479248047,0.022151917219161987
1789156664312338400,51.96233837890625,-2.6846938133239746,0.9813351631164551,-0.0927278995513916
1789156664372336000,52.022336181640625,-1.962203025817871,1.2575156688690186,0.052272945642471313
1789156664432242000,52.08224194335938,1.740462303161621,1.1473937034606934,-0.39870399236679077
1789156664492239600,52.14223950195313,2.142510414123535,1.5309598445892334,-0.5977890491485596
1789156664552176000,52.20217602539063,-0.2944145202636719,1.3891136646270752,0.23258140683174133
1789156664612082200,52.262082275390625,1.5506963729858398,-0.07264447212219238,-0.6046638488769531
1789156664672018700,52.322018798828125,0.7519111633300781,0.7776641845703125,-0.3890734314918518
1789156664731955200,52.381955078125,-1.909235954284668,-0.09607076644897461,0.3547656536102295
1789156664791861200,52.441861328125,-0.603546142578125,-0.06838846206665039,-0.7599087953567505
1789156664851828200,52.501828125,-2.4228100776672363,0.14683175086975098,-0.5616121888160706
1789156664911764700,52.5617646484375,-0.4824504852294922,0.1328141689300537,-0.5060163736343384
1789156664971670800,52.6216708984375,0.9047660827636719,0.38669919967651367,0.2680886685848236
1789156665031607300,52.68160717773438,1.0983314514160156,0.647066593170166,-0.1351347416639328
1789156665091482600,52.74148266601563,1.0354499816894531,0.2697436809539795,1.2270915508270264
1789156665151419100,52.80141918945313,1.5376968383789062,-0.5472583770751953,-0.6391099095344543
1789156665211386400,52.861386474609375,-0.7476701736450195,0.28052306175231934,0.9217678308486938
1789156665271353300,52.92135327148438,-2.60587739944458,0.7062280178070068,0.00649455189704895
1789156665331320300,52.9813203125,-1.7847261428833008,0.7173516750335693,-0.13262052834033966
1789156665391256800,53.0412568359375,-1.4710054397583008,1.3333103656768799,-0.12992125749588013
1789156665451193300,53.101193359375,0.8942708969116211,1.475776195526123,0.03588014841079712
1789156665511191000,53.16119091796875,2.9942445755004883,1.3857085704803467,-0.15230146050453186
1789156665571158000,53.22115795898438,0.113494873046875,1.7307682037353516,1.3676692247390747
1789156665631094500,53.28109448242188,1.6020374298095703,-0.3545355796813965,-1.0390849113464355
1789156665691031000,53.34103100585938,-0.1962261199951172,0.646345853805542,-0.4830239415168762
1789156665750998000,53.400998046875,-1.4030828475952148,-0.5519709587097168,-0.025516465306282043
1789156665810934500,53.4609345703125,-1.7735071182250977,-0.2212836742401123,-0.7093743085861206
1789156665870901800,53.52090185546875,-2.3909201622009277,0.1969738006591797,-0.7341439127922058
1789156665930868700,53.58086865234375,0.034587860107421875,0.26717281341552734,0.05211111903190613
1789156665990805200,53.64080517578125,0.6695232391357422,0.23367810249328613,0.6771979331970215
1789156666050711300,53.70071118164063,1.272618293762207,0.34671688079833984,0.7051123380661011
1789156666110708700,53.76070874023438,1.3735923767089844,-0.35677576065063477,-0.20282214879989624
1789156666170676000,53.820676025390625,1.2458038330078125,-0.5575549602508545,-1.245945930480957
1789156666230612500,53.880612548828125,-1.3286323547363281,-0.21135544776916504,0.34873735904693604
1789156666290610000,53.94060986328125,-1.1592073440551758,-0.10782027244567871,-0.24171191453933716
1789156666350546400,54.00054638671875,-2.2780203819274902,0.42700982093811035,0.16153667867183685
1789156666410483000,54.06048291015625,-1.4709348678588867,0.5321979522705078,0.06648986041545868
1789156666470419500,54.12041943359375,0.3271150588989258,0.9715211391448975,-0.23793376982212067
1789156666530386400,54.18038647460938,2.024510383605957,0.4714536666870117,-0.8087770938873291
1789156666590292500,54.24029248046875,0.6513137817382812,1.4022130966186523,1.8287549018859863
1789156666650290200,54.300290283203125,2.512571334838867,-0.6814794540405273,-1.3971601724624634
1789156666710196200,54.3601962890625,0.6377048492431641,1.0291850566864014,0.7870590686798096
1789156666770193700,54.42019360351563,-2.0589675903320312,-0.22091054916381836,0.24068154394626617
1789156666830191000,54.48019116210938,-1.6696529388427734,-0.2503643035888672,-0.08208933472633362
1789156666890128000,54.5401279296875,-2.3489794731140137,0.17977666854858398,-0.4521602988243103
1789156666950064400,54.600064453125,0.10110282897949219,0.04862403869628906,-0.42637497186660767
1789156667010001000,54.6600009765625,0.6095609664916992,0.08610272407531738,0.35444268584251404
1789156667069968000,54.7199677734375,0.5649118423461914,0.722454309463501,0.38430655002593994
1789156667129965300,54.77996533203125,1.0893964767456055,0.0006570816040039062,1.7588409185409546
1789156667189901800,54.83990185546875,3.024380683898926,-1.3210594654083252,-1.3487468957901
1789156667249869000,54.899869140625,-0.7437610626220703,0.19112229347229004,0.5611491203308105
1789156667309866500,54.95986645507813,-1.5096583366394043,0.39629459381103516,0.47553589940071106
1789156667369803000,55.01980297851563,-2.041881561279297,0.6294996738433838,0.08764023333787918
1789156667429770000,55.07977001953125,-1.3396329879760742,0.7502436637878418,0.1290077567100525
1789156667489676000,55.13967602539063,1.1583147048950195,1.010681390762329,-0.06572861224412918
1789156667549612500,55.19961254882813,1.3741846084594727,1.161330223083496,-0.9788418412208557
1789156667609579800,55.259579833984375,0.8597421646118164,0.8960695266723633,2.0406687259674072
1789156667669516300,55.319516357421875,2.144084930419922,-1.024868369102478,-2.170875310897827
1789156667729483300,55.37948315429688,0.35452938079833984,0.5676126480102539,1.078818917274475
1789156667789450200,55.4394501953125,-2.4307351112365723,-0.633169412612915,0.023540157824754715
1789156667849417200,55.49941723632813,-0.8873672485351562,-0.6446225643157959,-0.03876882791519165
1789156667909384400,55.559384521484375,-2.5634078979492188,0.0036945343017578125,-0.614370584487915
1789156667969290200,55.61929028320313,-1.0059938430786133,-0.1864147186279297,-0.2644501328468323
1789156668029226800,55.67922680664063,-0.881434440612793,-0.38152313232421875,0.022901367396116257
1789156668089163500,55.73916357421875,2.640623092651367,0.07925033569335938,0.4389991760253906
1789156668149143600,55.7991435546875,3.4475317001342773,0.07736563682556152,1.5518698692321777
1789156668209141200,55.859141357421876,1.925191879272461,-0.8422043323516846,-1.319192886352539
1789156668269108200,55.91910815429687,-0.39084434509277344,-0.11143803596496582,-0.06870973110198975
1789156668329075200,55.9790751953125,-2.543030261993408,0.49646735191345215,0.4371986389160156
1789156668389042200,56.03904223632812,-2.685913562774658,0.5504982471466064,0.8009012341499329
1789156668449009400,56.099009521484376,-1.4780564308166504,0.6019876003265381,0.3671838939189911
1789156668508946000,56.15894580078125,0.23588275909423828,0.6230924129486084,-0.4408339560031891
1789156668568913000,56.21891284179687,1.902470588684082,0.6645104885101318,-0.575386643409729
1789156668628880000,56.2788798828125,-0.6000509262084961,1.0922119617462158,0.3130913972854614
1789156668688846800,56.33884692382812,2.679746627807617,-0.01980304718017578,0.18423902988433838
1789156668748783400,56.39878344726562,0.9455652236938477,0.5202803611755371,-1.458188533782959
1789156668808750600,56.45875048828125,0.0906667709350586,-0.6551187038421631,0.46410611271858215
1789156668868687000,56.51868701171875,-1.5774893760681152,-0.13802886009216309,0.1377796232700348
1789156668928623600,56.57862353515625,-2.8297204971313477,-0.11843514442443848,0.2261160910129547
1789156668988560100,56.63856005859375,-0.7773523330688477,-0.22152376174926758,0.045151323080062866
1789156669048496600,56.69849658203125,-0.05710029602050781,-0.21814656257629395,-0.4190170466899872
1789156669148441600,56.79844165039062,0.7058534622192383,0.44453001022338867,1.4578182697296143
1789156669208408800,56.858408935546876,2.8964242935180664,-0.9304718971252441,-0.03957986831665039
1789156669268345300,56.918345458984376,0.896484375,-0.1572120189666748,-0.7595498561859131
1789156669328373200,56.97837329101562,-0.5847377777099609,-0.018830060958862305,0.3414638638496399
1789156669388309800,57.03830981445312,-1.5011916160583496,0.11196064949035645,0.8386353850364685
1789156669448277000,57.098277099609376,-2.5646510124206543,0.6441555023193359,0.34066295623779297
1789156669508244000,57.15824389648437,-0.8571233749389648,0.7959063053131104,0.050622910261154175
1789156669568180500,57.21818041992187,0.6394844055175781,1.3108749389648438,-1.2522234916687012
1789156669628178000,57.27817797851562,3.2112083435058594,1.4645376205444336,0.19530491530895233
1789156669688114400,57.33811450195312,0.20964813232421875,1.1874682903289795,1.3196156024932861
1789156669748112100,57.39811206054687,1.4801435470581055,-0.690850019454956,-1.1151204109191895
1789156669808048600,57.45804858398437,-1.2910327911376953,0.48140954971313477,-0.1412365734577179
1789156669868015600,57.518015625,-2.375380039215088,-0.13936066627502441,0.8527753353118896
1789156669927982600,57.57798266601562,-0.7378320693969727,-0.44856929779052734,-0.6690394282341003
1789156669987949800,57.63794970703125,-1.5980334281921387,0.07298779487609863,0.35038501024246216
1789156670047855900,57.69785595703125,-1.183466911315918,0.39387989044189453,0.11738628149032593
1789156670107792400,57.75779248046875,0.4184436798095703,0.657355546951294,-0.08022871613502502
1789156670167729000,57.81772900390625,1.1748380661010742,0.872708797454834,-0.05259668827056885
1789156670227665400,57.87766552734375,2.894166946411133,0.8485503196716309,0.9789556264877319
1789156670287632400,57.93763232421875,1.4547300338745117,-0.5894887447357178,-0.5906475782394409
1789156670347538400,57.99753833007812,-0.35360145568847656,0.21233916282653809,1.2982442378997803
1789156670407535900,58.05753588867187,-3.1309332847595215,0.0004355907440185547,0.40199077129364014
1789156670467472400,58.11747241210937,-1.6981334686279297,-0.042005300521850586,-0.001863757148385048
1789156670527439600,58.177439697265626,-2.180205821990967,1.0675146579742432,0.11352961510419846
1789156670587376000,58.237376220703126,0.11771297454833984,0.6695549488067627,0.7803578972816467
1789156670647373600,58.29737353515625,2.641477584838867,0.28446054458618164,0.059690993279218674
1789156670747257600,58.39725756835937,1.9687137603759766,0.5914204120635986,0.4629046618938446
1789156670807194000,58.45719409179687,1.8894014358520508,-0.7295405864715576,-2.347902774810791
1789156670867100200,58.51710009765625,-0.5813350677490234,0.38451719284057617,0.8696639537811279
1789156670927067100,58.57706713867187,-2.5804319381713867,0.4680149555206299,-0.007351480424404144
1789156670987003600,58.63700366210937,-1.6048073768615723,0.22423744201660156,-0.4275819659233093
1789156671046940200,58.69694018554687,-1.1744613647460938,0.5956525802612305,-0.4884617328643799
1789156671106876700,58.75687670898437,-1.1074457168579102,0.9030141830444336,0.1520342230796814
1789156671166813200,58.81681323242187,1.3888988494873047,-0.09481620788574219,0.5020648241043091
1789156671266697200,58.916697265625,3.1560983657836914,-0.3565104007720947,0.6468180418014526
1789156671326664400,58.97666455078125,0.7247095108032227,-0.9796323776245117,0.0689452663064003
1789156671386601000,59.03660107421875,-1.1517343521118164,-0.6290693283081055,1.4271860122680664
1789156671446537500,59.09653735351562,-1.3466620445251465,-0.6262617111206055,0.4496610164642334
1789156671506474000,59.15647387695312,-2.339900493621826,-0.25636839866638184,0.4479822516441345
1789156671566441000,59.21644091796875,-0.8552932739257812,0.041346073150634766,0.48719021677970886
1789156671626377500,59.27637744140625,0.8171453475952148,0.7404325008392334,0.38836032152175903
1789156671686344400,59.33634448242187,2.0350093841552734,0.0908193588256836,-0.2233070731163025
1789156671746281000,59.39628100585937,-0.19630146026611328,0.28568434715270996,0.3694654405117035
1789156671806217500,59.45621752929687,2.061138153076172,-1.360133171081543,0.6781339049339294
1789156671866123500,59.51612353515625,0.5928840637207031,-0.36650776863098145,-1.2101988792419434
1789156671926090500,59.57609057617187,-0.6416854858398438,-1.1263916492462158,0.3311966061592102
1789156671985996500,59.63599658203125,-0.9767112731933594,-0.881537914276123,-0.02482953667640686
1789156672045902600,59.69590258789062,-1.9007816314697266,-0.36383485794067383,-0.45649465918540955
1789156672105839000,59.75583911132812,-0.7231979370117188,-0.0259857177734375,0.12394625693559647
1789156672165775600,59.81577563476562,-0.45383358001708984,0.14069628715515137,-1.301326870918274
1789156672225803800,59.8758037109375,1.7450389862060547,0.42314982414245605,0.23763501644134521
1789156672285740300,59.935740234375,3.6488895416259766,0.033614397048950195,0.9152414798736572
1789156672345646300,59.99564624023437,0.382354736328125,-0.4869353771209717,-0.0125960111618042
1789156672405613300,60.05561328125,-0.5174932479858398,-0.4239945411682129,0.2976604104042053
1789156672465580300,60.11558032226562,-0.26227664947509766,-0.27518677711486816,-1.1772534847259521
1789156672525486300,60.175486328125,-2.074925422668457,-0.10637402534484863,-0.09978164732456207
1789156672585422800,60.2354228515625,-1.6261506080627441,0.23221802711486816,0.22171705961227417
1789156672645329000,60.29532885742187,0.3367300033569336,0.25690746307373047,0.7755457758903503
1789156672705265400,60.35526538085937,1.1179046630859375,0.09956645965576172,0.39942777156829834
1789156672765141000,60.41514111328125,-0.45482349395751953,0.2903437614440918,0.15249300003051758
1789156672825047000,60.475047119140626,3.000520706176758,-0.540163516998291,-0.11001260578632355
1789156672885014000,60.53501391601562,2.6167774200439453,-0.8643739223480225,-2.3258278369903564
1789156672944920000,60.594920166015626,0.25536632537841797,-0.6572766304016113,0.11039576679468155
1789156673004856600,60.654856689453126,-2.168076992034912,-0.5732686519622803,-1.371561884880066
1789156673064793000,60.71479296875,-2.1148715019226074,-0.23375797271728516,-0.027496717870235443
1789156673124729600,60.7747294921875,-2.444049835205078,0.06912899017333984,-0.028946256265044212
1789156673184666000,60.834666015625,-0.418243408203125,-0.3932924270629883,1.213149070739746
1789156673244586800,60.89458666992188,2.0904226303100586,0.1335458755493164,-0.9105541706085205
1789156673304492800,60.954492919921876,1.8993406295776367,-0.7985033988952637,-0.02174648642539978
1789156673364429300,61.01442919921875,2.6961660385131836,-1.159284234046936,1.2804731130599976
1789156673424365800,61.07436572265625,-0.4321756362915039,-0.7728159427642822,-0.8120330572128296
1789156673484332800,61.13433276367188,-0.6036109924316406,-0.46349310874938965,0.7418974041938782
1789156673544269300,61.19426928710938,-1.7442865371704102,-0.09443068504333496,0.7770581841468811
1789156673604205800,61.25420581054688,-2.518688678741455,0.19222640991210938,-0.10214799642562866
1789156673664142300,61.31414233398438,-0.3909902572631836,0.036699771881103516,0.04758810997009277
1789156673724078800,61.37407885742188,0.12066936492919922,0.34845614433288574,0.07180237770080566
1789156673784046000,61.434046142578126,1.3297500610351562,0.5719418525695801,1.2904837131500244
1789156673843982600,61.493982666015626,0.5307836532592773,-0.7797703742980957,-1.2297375202178955
1789156673903949600,61.55394946289063,3.1446542739868164,-0.4660468101501465,-0.4293537735939026
1789156673963886000,61.61388598632813,-1.4469695091247559,-0.3725409507751465,-0.7771772146224976
1789156674023761700,61.67376171875,-0.20732688903808594,-0.4422297477722168,0.05746205151081085
1789156674083698200,61.7336982421875,-2.12312650680542,-0.3721892833709717,-0.49021729826927185
1789156674143634700,61.793634765625,-0.8965244293212891,-0.23561954498291016,-0.09715963900089264
1789156674203571200,61.8535712890625,0.379638671875,-0.28930091857910156,-0.016954202204942703
1789156674263477200,61.913477294921876,2.1008729934692383,-0.11008024215698242,-0.6309784054756165
1789156674323444200,61.9734443359375,1.9599037170410156,-0.6673588752746582,1.5180026292800903
1789156674383350300,62.033350341796876,2.950188636779785,-1.0745127201080322,0.6579023003578186
1789156674443256000,62.09325610351563,-1.1790237426757812,-0.22979164123535156,0.950219988822937
1789156674503223300,62.153223388671876,-1.6393423080444336,-0.08643031120300293,1.7131984233856201
1789156674603137800,62.2531376953125,-0.8970737457275391,-0.29178404808044434,-0.3092353940010071
1789156674663074300,62.31307421875,-1.112417221069336,-0.04963350296020508,-1.452591896057129
1789156674722950000,62.372949951171876,0.16461849212646484,-0.04395580291748047,-0.5528664588928223
1789156674782916900,62.43291674804688,1.603590965270996,0.09357976913452148,-1.5403516292572021
1789156674842853400,62.49285327148438,1.1835832595825195,-0.410351037979126,0.9752654433250427
1789156674902790000,62.55278979492188,0.8288640975952148,-1.6904057264328003,-1.0648024082183838
1789156674962696000,62.612696044921876,0.6831893920898438,-0.8460822105407715,-0.0523144006729126
1789156675022602000,62.67260205078125,-0.6655721664428711,-0.950007438659668,0.34367629885673523
1789156675082599400,62.73259936523438,-1.040257453918457,-0.6788308620452881,-0.12629586458206177
1789156675142505500,62.79250537109375,-1.9501285552978516,-0.18919658660888672,0.4077742397785187
1789156675202442000,62.85244189453125,-0.2375326156616211,-0.294705867767334,-0.06124866008758545
1789156675262348000,62.91234814453125,1.3257532119750977,-0.6449520587921143,0.4516407549381256
1789156675322284500,62.97228442382813,0.6473608016967773,0.00464177131652832,0.49321088194847107
1789156675382190600,63.032190673828126,1.4821453094482422,-0.919398307800293,-0.01911023259162903
1789156675442157600,63.09215747070313,1.383814811706543,-0.5130753517150879,-0.16034647822380066
1789156675502094000,63.15209399414063,-1.176407814025879,-0.40993189811706543,0.5266509056091309
1789156675562030600,63.21203051757813,-1.3157482147216797,0.16184401512145996,0.5262458324432373
1789156675621997600,63.27199755859375,-2.3917431831359863,0.4921145439147949,-0.40738606452941895
1789156675681934000,63.33193408203125,-0.8534727096557617,0.7604916095733643,0.09200778603553772
1789156675741870600,63.39187060546875,0.08484363555908203,0.19950413703918457,-0.6631648540496826
1789156675801837800,63.451837890625,2.052374839782715,-0.07809972763061523,-0.4520968198776245
1789156675861774300,63.5117744140625,0.23748302459716797,-0.1872849464416504,1.0054736137390137
1789156675921710800,63.5717109375,2.6329946517944336,-1.7264604568481445,-0.9547452926635742
1789156675981708300,63.63170825195313,0.3446807861328125,-0.4217965602874756,-0.43012237548828125
1789156676041644800,63.69164477539063,-0.14269065856933594,-1.6127078533172607,-0.5820735692977905
1789156676101611800,63.75161181640625,-0.42803478240966797,-0.9205808639526367,0.2781856656074524
1789156676161548500,63.811548583984376,-2.094784736633301,-0.7624998092651367,-0.3204672932624817
1789156676221515500,63.871515625,0.15357685089111328,-0.47927212715148926,0.2948651611804962
1789156676281452000,63.9314521484375,1.000391960144043,-0.8225417137145996,0.3338223695755005
1789156676341327400,63.99132739257813,1.3577537536621094,0.5592834949493408,-0.25038012862205505
1789156676401294600,64.05129467773438,1.1230697631835938,-0.6066608428955078,1.116336703300476
1789156676461200600,64.11120068359375,2.108304977416992,-0.8737485408782959,-0.313151478767395
1789156676521137200,64.17113720703125,-0.6829004287719727,0.5593514442443848,2.8540992736816406
1789156676581012500,64.23101245117188,-1.7089824676513672,0.061222076416015625,1.0090765953063965
1789156676640949000,64.29094897460938,-1.6230955123901367,-0.05394554138183594,-0.3365236520767212
1789156676700855000,64.35085498046875,-1.7669401168823242,0.31299519538879395,-0.5171104073524475
1789156676760791600,64.41079150390625,-0.2810354232788086,0.29694461822509766,-0.3490297794342041
1789156676820697600,64.47069750976563,1.3620414733886719,0.3502063751220703,-0.7485202550888062
1789156676880634000,64.53063403320313,0.055294036865234375,1.2340500354766846,-0.550726056098938
1789156676940540200,64.5905400390625,3.147067070007324,-0.6767086982727051,0.5819891095161438
1789156677000476700,64.6504765625,1.3008499145507812,-0.15427517890930176,-1.0839558839797974
1789156677060413200,64.7104130859375,-0.6711654663085938,-0.7716100215911865,0.7071800231933594
1789156677120410600,64.77041064453125,-1.204939365386963,-0.6809005737304688,0.6686785221099854
1789156677180347100,64.83034716796875,-2.1537227630615234,-0.34676408767700195,-0.14731621742248535
1789156677240253200,64.89025317382813,0.10945987701416016,-0.041452646255493164,0.28140318393707275
1789156677300159200,64.9501591796875,0.27067089080810547,0.02524542808532715,0.5285069346427917
1789156677360095700,65.010095703125,1.3604450225830078,0.4481475353240967,-0.73155277967453
1789156677420032300,65.0700322265625,-0.7074165344238281,0.4720265865325928,1.781227707862854
1789156677479968800,65.12996875,3.0997314453125,-1.3244297504425049,-0.8006560802459717
1789156677539905300,65.1899052734375,0.08957290649414062,0.1873164176940918,1.1865125894546509
1789156677599872500,65.24987255859375,-1.8735456466674805,0.4077730178833008,1.0188772678375244
1789156677659809000,65.30980908203125,-1.3733515739440918,0.36882925033569336,1.098915457725525
1789156677719745500,65.36974560546875,-2.5853939056396484,0.5352563858032227,0.3156712055206299
1789156677779712500,65.42971240234375,-0.8417606353759766,0.5992531776428223,0.23148852586746216
1789156677839618600,65.48961865234375,1.4896135330200195,0.6438932418823242,-0.8255785703659058
1789156677899585500,65.54958544921875,0.3609466552734375,1.6736974716186523,-1.0867483615875244
1789156677959552500,65.60955249023438,1.8149595260620117,0.915184736251831,0.9733067154884338
1789156678019428000,65.66942797851563,0.2320852279663086,0.4775826930999756,-1.1063891649246216
1789156678079395000,65.72939501953125,0.014712333679199219,0.007168769836425781,0.328945130109787
1789156678139331600,65.78933154296875,-0.8847846984863281,-0.017099380493164062,-0.12153089046478271
1789156678199268000,65.84926806640625,-1.8704214096069336,0.2369401454925537,-0.3090929388999939
1789156678259154200,65.909154296875,-1.9048309326171875,0.49600934982299805,0.12684249877929688
1789156678319121200,65.96912109375,-0.6293668746948242,0.5433738231658936,-0.5389893651008606
1789156678379057700,66.0290576171875,0.9890661239624023,-0.1683042049407959,0.2262859344482422
1789156678438963700,66.08896362304688,0.948033332824707,-0.11674928665161133,0.6023160219192505
1789156678498900200,66.14890014648438,3.8492374420166016,-0.8335390090942383,0.23661282658576965
1789156678558867500,66.20886743164063,0.6565513610839844,0.16503071784973145,0.46646881103515625
1789156678618804000,66.26880395507813,-1.7537741661071777,0.01147150993347168,0.930670976638794
1789156678678771000,66.32877099609375,-0.07652568817138672,0.00488591194152832,0.5484969615936279
1789156678738707500,66.38870751953125,-2.2962875366210938,0.22218012809753418,0.4780917763710022
1789156678798644000,66.44864404296875,-1.5050902366638184,0.18393301963806152,0.6889775991439819
1789156678858611000,66.50861083984375,-0.10654926300048828,0.3335411548614502,0.05619680881500244
1789156678918578000,66.56857788085938,0.48658275604248047,-0.09510993957519531,-2.8090286254882812
1789156678978514400,66.62851440429688,0.13442707061767578,0.3691091537475586,0.16412758827209473
1789156679038420500,66.68842041015625,3.4712257385253906,-1.1508455276489258,-1.2010090351104736
1789156679098326500,66.74832641601563,0.7503690719604492,0.31144261360168457,-0.2262047529220581
1789156679158232600,66.80823266601563,-0.9761266708374023,-0.34917259216308594,-0.15085721015930176
1789156679218138600,66.868138671875,-0.8316793441772461,-0.14877891540527344,0.04407668113708496
1789156679278105600,66.92810571289063,-2.4808731079101562,-0.13364219665527344,-0.8667817115783691
1789156679338072600,66.98807250976563,-0.8819522857666016,0.03796982765197754,-0.4311469793319702
1789156679398039800,67.04803979492188,0.869044303894043,-0.44438600540161133,-0.5741924047470093
1789156679457976300,67.10797631835938,0.9918441772460938,0.7237458229064941,0.36326655745506287
1789156679517943300,67.167943359375,-0.7102499008178711,0.2161104679107666,1.3123443126678467
1789156679577879800,67.2278798828125,3.5787267684936523,-1.3507850170135498,-0.01162216067314148
1789156679637846800,67.2878466796875,0.556147575378418,0.010882377624511719,0.5143228769302368
1789156679697783300,67.347783203125,-1.3549776077270508,-0.00787353515625,0.7436091899871826
1789156679757719800,67.4077197265625,-2.0986475944519043,0.07096028327941895,0.5161922574043274
1789156679817625900,67.4676259765625,-2.184662342071533,0.35004138946533203,0.3552170395851135
1789156679877623600,67.52762353515625,-0.9479761123657227,0.5949316024780273,0.5940729379653931
1789156679937560000,67.58756005859375,1.3068513870239258,0.92781662940979,-0.5882473587989807
1789156679997496600,67.64749658203125,1.3347349166870117,1.34785795211792,-1.4683760404586792
1789156680057494000,67.70749389648438,1.8033409118652344,0.09992814064025879,-0.2120504379272461
1789156680117430500,67.76743041992188,0.06073284149169922,0.33780598640441895,-0.5823642015457153
1789156680177336600,67.82733666992188,-0.5084676742553711,-0.22978997230529785,0.28476035594940186
1789156680237273000,67.88727319335938,-0.2273244857788086,-0.30646276473999023,-0.35533326864242554
1789156680297209600,67.94720971679688,-2.535040855407715,0.28661632537841797,0.05120617151260376
1789156680357146000,68.00714599609375,-1.4347319602966309,0.5304996967315674,0.4944559931755066
1789156680417143800,68.06714379882813,0.21092987060546875,0.8133034706115723,-0.2165021300315857
1789156680477080300,68.12708032226563,1.8054819107055664,-0.2787156105041504,-0.37335437536239624
1789156680537047300,68.18704736328125,0.7390556335449219,0.474337100982666,1.7974162101745605
1789156680596983800,68.24698388671875,2.5431594848632812,-1.261673927307129,-0.030630260705947876
1789156680656920300,68.30692041015625,0.8638887405395508,-0.22567057609558105,0.6022496223449707
1789156680716887300,68.36688720703125,-2.003848075866699,-0.20928525924682617,0.9802166819572449
1789156680776793300,68.42679345703125,-0.5942201614379883,0.18990564346313477,1.1241681575775146
1789156680836760300,68.48676025390625,-2.453442096710205,0.36028456687927246,0.6817829608917236
1789156680896666400,68.54666625976563,-1.009490966796875,0.580681562423706,0.7453946471214294
1789156680956603000,68.60660278320313,-0.27094364166259766,0.6617093086242676,0.06866687536239624
1789156681016539400,68.66653930664063,1.170609474182129,0.48540830612182617,-0.6413904428482056
1789156681076476000,68.72647583007813,0.7183513641357422,0.3466529846191406,1.8687241077423096
1789156681136443100,68.78644311523438,3.5238399505615234,-2.035443067550659,-2.030914068222046
1789156681196440600,68.84644067382813,-0.29137134552001953,0.37204837799072266,0.725488007068634
1789156681256407600,68.90640747070313,-1.519350528717041,-0.8845939636230469,-0.4062027335166931
1789156681316313600,68.96631372070313,-0.7660179138183594,-0.6607751846313477,-0.19470351934432983
1789156681376219600,69.0262197265625,-2.4127354621887207,-0.19093084335327148,-0.25721797347068787
1789156681436156200,69.08615625,0.5404825210571289,0.04935121536254883,-0.06290513277053833
1789156681496092700,69.1460927734375,0.5583429336547852,-0.42220115661621094,0.23426781594753265
1789156681556059600,69.2060595703125,1.9280014038085938,0.5604877471923828,0.101579949259758
1789156681616026600,69.26602661132813,2.09114933013916,-0.3182504177093506,1.1456148624420166
1789156681675963400,69.32596337890625,1.1694908142089844,-0.5849394798278809,0.3767679035663605
1789156681735900000,69.38589990234375,-1.4177145957946777,-0.18455862998962402,1.5952751636505127
1789156681795836400,69.44583642578125,-0.9565238952636719,0.045336008071899414,0.7955930829048157
1789156681855742200,69.5057421875,-2.422266960144043,0.3968527317047119,0.44934913516044617
1789156681915648300,69.56564819335938,-1.7893314361572266,0.5834555625915527,0.4306652247905731
1789156681975584800,69.62558471679688,0.20818805694580078,0.6819887161254883,0.6462571024894714
1789156682035582500,69.68558251953125,1.7657203674316406,0.6446781158447266,-1.1516733169555664
1789156682095519000,69.74551904296875,0.76129150390625,0.5551855564117432,0.4971691966056824
1789156682155486000,69.80548583984375,2.1894826889038086,-1.0400042533874512,-1.1583571434020996
1789156682215392000,69.86539208984375,0.5539693832397461,0.7899363040924072,-0.5371195673942566
1789156682275267600,69.925267578125,-0.9503593444824219,-0.5995750427246094,-0.286977618932724
1789156682335234600,69.98523461914063,-0.5653676986694336,-0.7531852722167969,-0.40431874990463257
1789156682395171000,70.04517114257813,-2.411959648132324,-0.6273539066314697,-0.0820232629776001
1789156682455138000,70.10513793945313,-1.3732805252075195,-0.29428768157958984,-0.012207627296447754
1789156682515105000,70.16510498046875,0.34416770935058594,0.436220645904541,0.3616127371788025
1789156682575011000,70.22501098632813,0.8560667037963867,0.6908302307128906,-0.25005048513412476
1789156682634978000,70.28497802734375,1.511688232421875,-0.24720239639282227,0.6860190629959106
1789156682694914800,70.34491479492188,0.7729778289794922,-0.7544200420379639,-0.5161676406860352
1789156682754881800,70.4048818359375,0.8558158874511719,-0.32957005500793457,0.5972184538841248
1789156682814757000,70.46475708007813,-0.8301944732666016,0.3708467483520508,0.8837388157844543
1789156682874754800,70.5247548828125,-1.6466221809387207,0.2490243911743164,0.4039490818977356
1789156682934660900,70.58466088867188,-1.1319513320922852,0.5504136085510254,-0.4505521357059479
1789156682994597400,70.64459741210938,-0.38468265533447266,0.13260316848754883,-0.39889419078826904
1789156683054503400,70.70450341796875,1.8667936325073242,0.22726988792419434,-1.058227777481079
1789156683114409200,70.7644091796875,0.27256298065185547,1.1684949398040771,0.13465997576713562
1789156683174407000,70.82440698242188,2.2849416732788086,0.32260799407958984,0.661088764667511
1789156683234374000,70.88437377929688,1.1880855560302734,-1.111051082611084,-0.9626024961471558
1789156683294295600,70.94429565429688,-0.5921459197998047,-0.3397867679595947,0.9759562611579895
1789156683354201600,71.00420166015626,-0.22446537017822266,-0.9357836246490479,-0.10427597165107727
1789156683414168600,71.06416845703124,-1.2902488708496094,-0.8096957206726074,0.6167365908622742
1789156683474105000,71.12410498046874,-1.6989216804504395,-0.5720629692077637,0.11564642190933228
1789156683534041600,71.18404150390624,-0.013043403625488281,-0.22551298141479492,0.32823672890663147
1789156683594008800,71.2440087890625,0.801030158996582,-0.24397706985473633,0.234398752450943
1789156683653975800,71.30397583007813,0.8443775177001953,0.2330794334411621,-0.19168180227279663
1789156683713912300,71.36391235351563,1.6016006469726562,-0.48415684700012207,1.4915865659713745
1789156683773788000,71.42378784179688,0.8642845153808594,-0.48915576934814453,0.015053484588861465
1789156683833724400,71.48372436523438,-0.3025960922241211,-0.33997130393981934,1.0520694255828857
1789156683893661000,71.54366088867188,-1.2628064155578613,-0.15339374542236328,0.5536121129989624
1789156683993545000,71.643544921875,-2.3995766639709473,0.3447132110595703,-0.09113520383834839
1789156684053542400,71.70354248046876,0.29094982147216797,0.14858460426330566,0.06910917162895203
1789156684113509400,71.76350927734374,0.9149894714355469,0.7833101749420166,-0.6067497730255127
1789156684173446100,71.82344604492188,-0.20200061798095703,0.7857110500335693,0.14390677213668823
1789156684233413000,71.8834130859375,4.203492164611816,-0.8110203742980957,0.612679660320282
1789156684293349600,71.943349609375,0.7126569747924805,-0.09091782569885254,-0.9544205665588379
1789156684353286100,72.0032861328125,-0.639338493347168,-0.6072981357574463,0.3554530143737793
1789156684413192200,72.06319213867188,-1.2178683280944824,-0.5821521282196045,0.5284599661827087
1789156684473128700,72.12312866210938,-1.9108128547668457,-0.6743285655975342,-0.04278120398521423
1789156684533126100,72.18312622070313,-1.6785850524902344,-0.14687442779541016,0.015940040349960327
1789156684593032200,72.2430322265625,0.15548133850097656,0.16594767570495605,-0.43903064727783203
1789156684652968700,72.30296875,1.7522869110107422,-0.1950516700744629,0.6026073098182678
1789156684712905200,72.3629052734375,0.7810754776000977,0.10396242141723633,0.6709535121917725
1789156684772841700,72.422841796875,3.140162467956543,-0.9889552593231201,-0.4101789891719818
1789156684832778200,72.4827783203125,1.277939796447754,-0.33904600143432617,0.5453043580055237
1789156684892653800,72.54265380859376,-1.8457369804382324,-0.34195661544799805,1.1806983947753906
1789156684952559900,72.60255981445313,-2.5075535774230957,-0.41210508346557617,0.15506145358085632
1789156685012526800,72.66252685546876,-2.530557155609131,-0.24617314338684082,-0.2681218385696411
1789156685072463400,72.72246337890626,-1.1606073379516602,0.6025230884552002,0.2603921890258789
1789156685132399900,72.78239990234376,1.0500249862670898,0.7895474433898926,-0.6880494356155396
1789156685192366800,72.84236694335938,2.040607452392578,0.7798244953155518,-1.0023328065872192
1789156685252334000,72.902333984375,1.8916168212890625,1.1309385299682617,0.11677812039852142
1789156685312301000,72.96230102539063,2.470457077026367,-0.3345015048980713,-1.147219181060791
1789156685372207000,73.02220703125,0.44727611541748047,0.07327771186828613,0.3340801000595093
1789156685432174000,73.08217407226563,-1.8180122375488281,-0.7001657485961914,-0.39131960272789
1789156685492110600,73.14211059570313,-2.1494007110595703,-0.6549868583679199,-0.31047555804252625
1789156685552077600,73.20207763671876,-2.2456326484680176,-0.28264665603637695,-1.0445603132247925
1789156685612014000,73.26201416015626,-0.49028873443603516,0.1894991397857666,-0.14454446732997894
1789156685671950600,73.32195068359376,0.6771221160888672,0.3022167682647705,-0.17047102749347687
1789156685731887000,73.38188720703126,1.7267837524414062,0.14464235305786133,-0.30537736415863037
1789156685791884800,73.441884765625,3.1656551361083984,-1.008821964263916,0.04516708850860596
1789156685851790800,73.50179077148438,2.4999046325683594,-1.6283236742019653,-1.3849056959152222
1789156685911757800,73.5617578125,-2.0437698364257812,0.2539992332458496,3.3752622604370117
1789156685971724800,73.62172485351563,-2.6124696731567383,-0.597888708114624,0.4027852416038513
1789156686031691800,73.68169189453126,-0.8689413070678711,-0.48017454147338867,0.2477426528930664
1789156686091628300,73.74162817382812,-2.214876651763916,-0.02341604232788086,-0.17647147178649902
1789156686151564800,73.80156469726562,-0.2060985565185547,0.2978024482727051,-0.20179954171180725
1789156686211501300,73.86150122070312,1.6735105514526367,0.5732104778289795,-0.8964344263076782
1789156686271438000,73.92143798828126,-0.30690860748291016,0.6631088256835938,-0.6313260197639465
1789156686331344000,73.98134375,4.939092636108398,-0.39934659004211426,-0.02353423833847046
1789156686391311000,74.04131103515626,1.4817752838134766,0.31005287170410156,-1.5544102191925049
1789156686451247600,74.10124755859376,-1.118387222290039,-0.05046820640563965,1.06398606300354
1789156686511214600,74.16121459960938,-1.8577089309692383,-0.5521860122680664,0.2002606987953186
1789156686571151000,74.22115112304688,-2.4037671089172363,-0.6204955577850342,-0.40396276116371155
1789156686671035100,74.32103515625,-0.5078144073486328,-0.3607158660888672,-0.1896810084581375
1789156686730971600,74.3809716796875,0.9292001724243164,-0.7152111530303955,0.9558529853820801
1789156686790877700,74.44087768554688,1.3318119049072266,-0.5196552276611328,1.6766798496246338
1789156686850814200,74.50081420898438,2.1718835830688477,-0.886049747467041,1.070002794265747
1789156686910781200,74.56078125,1.0542068481445312,-0.6233973503112793,-0.31403571367263794
1789156686970748200,74.620748046875,-0.1476297378540039,-0.36874818801879883,1.0611475706100464
1789156687030654200,74.680654296875,-1.94337797164917,-0.4481475353240967,0.3868546783924103
1789156687090621200,74.74062109375,-2.374607563018799,0.0160830020904541,0.5258742570877075
1789156687150527200,74.80052734375,-1.2050457000732422,0.21620988845825195,0.22622504830360413
1789156687210433300,74.86043334960938,0.8441085815429688,0.9032518863677979,-0.560480535030365
1789156687270369800,74.92036987304688,2.1473283767700195,0.9199624061584473,-0.5160079598426819
1789156687330306300,74.98030639648438,0.2490549087524414,1.014768123626709,1.219793438911438
1789156687430129400,75.08012939453126,1.7019405364990234,-0.08044981956481934,-1.5927180051803589
1789156687490035500,75.14003540039063,-0.4450826644897461,-0.2336108684539795,1.2672934532165527
1789156687549972000,75.19997192382813,-2.00740909576416,-0.7704222202301025,-0.09624043107032776
1789156687609969400,75.25996948242188,-2.189537525177002,-0.7301714420318604,-0.02080187201499939
1789156687669906000,75.31990600585938,-2.5143866539001465,-0.057927608489990234,0.04703241586685181
1789156687729842400,75.37984252929688,0.21146106719970703,-0.13422346115112305,-0.08706444501876831
1789156687789779000,75.43977905273438,1.4969072341918945,0.47864723205566406,0.952095627784729
1789156687849685000,75.49968505859376,1.6149702072143555,0.35285449028015137,1.832056999206543
1789156687909682700,75.5596826171875,2.7596988677978516,-0.7966387271881104,0.37864089012145996
1789156687969619200,75.619619140625,1.5823030471801758,-0.4833104610443115,0.42775124311447144
1789156688029555700,75.6795556640625,-0.5360603332519531,-0.12796354293823242,0.5543138980865479
1789156688089492200,75.7394921875,-2.151893138885498,0.054671525955200195,0.4049304127693176
1789156688149489700,75.79948974609376,-2.0105109214782715,-0.02289891242980957,0.9404042959213257
1789156688209426200,75.85942626953126,-1.5327434539794922,0.26639318466186523,1.0652834177017212
1789156688269393400,75.91939331054688,-0.264862060546875,0.2954995632171631,-0.22992417216300964
1789156688329360400,75.9793603515625,1.3790531158447266,0.5078141689300537,-1.1816798448562622
1789156688389339000,76.0393388671875,-0.4171772003173828,0.07309389114379883,1.1869323253631592
1789156688449305900,76.09930590820312,1.2795934677124023,-1.2838997840881348,-0.26313018798828125
1789156688509303600,76.15930346679687,0.21965885162353516,-0.08827042579650879,0.12943056225776672
1789156688569209600,76.21920971679687,-0.5748577117919922,-0.6211249828338623,-0.2567746043205261
1789156688629085000,76.2790849609375,-0.7017765045166016,-0.17344331741333008,0.34857189655303955
1789156688688960500,76.33896044921875,-1.8908958435058594,0.08949136734008789,0.26302433013916016
1789156688748958000,76.3989580078125,-0.7053489685058594,0.17536401748657227,0.48950883746147156
1789156688808864000,76.45886401367187,0.9544687271118164,-0.5060067176818848,0.7625188827514648
1789156688868800500,76.51880053710937,2.6327829360961914,-0.28759074211120605,0.45326167345046997
1789156688928737000,76.57873706054687,2.002645492553711,-0.3154170513153076,2.1290793418884277
1789156688988673500,76.63867358398437,0.6923255920410156,-0.3603031635284424,-0.9083119630813599
