time,seconds_elapsed,z,y,x
1789156612625440500,0.2754404296875,0.009162978269159794,0.02076941914856434,-0.012217304669320583
1789156612705366000,0.355365966796875,0.32131510972976685,-0.6401867866516113,-0.9199630618095398
1789156612785322000,0.435322021484375,-0.48258355259895325,-0.9749409556388855,-0.46242499351501465
1789156612865247500,0.51524755859375,0.32009339332580566,-0.0861319974064827,-1.0488556623458862
1789156612945173000,0.595173095703125,-0.44104471802711487,0.27000242471694946,-0.2119702398777008
1789156613025129200,0.675129150390625,0.03726277872920036,0.2125810980796814,-0.3689626157283783
1789156613105024300,0.755024169921875,-0.394618958234787,-0.2125810980796814,-0.1111774742603302
1789156613184888600,0.834888671875,0.8484918475151062,1.598023533821106,0.7269296646118164
1789156613264783600,0.91478369140625,-0.3274237811565399,0.4386012554168701,0.13744467496871948
1789156613344678700,0.9946787109375,-0.32131510972976685,-0.8533787727355957,-0.7470881938934326
1789156613424573700,1.07457373046875,-0.029932396486401558,-0.2822197377681732,-0.25595253705978394
1789156613504438300,1.154438232421875,0.08429940044879913,0.12400564551353455,0.01160643994808197
1789156613584363800,1.23436376953125,0.039706241339445114,-0.08674286305904388,-0.03848451003432274
1789156613664289300,1.314289306640625,-0.04886921867728233,-0.17348572611808777,-0.13988813757896423
1789156613744245500,1.39424560546875,-0.051312681287527084,-0.05375614017248154,0.03726277872920036
1789156613824140300,1.474140380859375,-0.010995574295520782,-0.015271631069481373,-0.10506882518529892
1789156613904035300,1.554035400390625,0,-0.09162978827953339,-0.01466076634824276
1789156613983930400,1.633930419921875,0.006108652334660292,-0.1313360333442688,0.0024434609804302454
1789156614063764500,1.713764404296875,0.036041051149368286,-0.09896016865968704,-0.022602014243602753
1789156614143690000,1.79368994140625,0.051312681287527084,-0.022602014243602753,-0.01771509274840355
1789156614223615500,1.873615478515625,0.009773843921720982,-0.1062905490398407,0.036041051149368286
1789156614343488500,1.993488525390625,0.025656340643763542,-0.04581489413976669,0.05803219974040985
1789156614423383600,2.073383544921875,-0.01710422709584236,0.012828170321881771,-0.07208210229873657
1789156614503309000,2.15330908203125,-0.02321287989616394,-0.018325956538319588,-0.06475171446800232
1789156614583234600,2.233234619140625,0.00855211354792118,-0.0708603709936142,0.04764748737215996
1789156614663129600,2.313129638671875,-0.030543262138962746,-0.08002334833145142,0.059864792972803116
1789156614782972200,2.43297216796875,-0.11728613078594208,-0.059864792972803116,-0.06902777403593063
1789156614862867200,2.5128671875,-0.045204028487205505,-0.0354301854968071,-0.09285151958465576
1789156614942792700,2.592792724609375,-0.08674286305904388,0.09407325088977814,0.059864792972803116
1789156615062665700,2.712665771484375,-0.01771509274840355,-0.028099801391363144,0
1789156615142530300,2.7925302734375,-0.03726277872920036,-0.07819075137376785,-0.0507018156349659
1789156615222486300,2.872486328125,-0.01771509274840355,-0.04337143152952194,0.02687807008624077
1789156615302442500,2.9524423828125,0.028099801391363144,-0.06536258012056351,0.00366519158706069
1789156615422376400,3.07237646484375,-0.001832595793530345,-0.018325956538319588,-0.0024434609804302454
1789156615542280000,3.192280029296875,-0.00733038317412138,-0.03787364438176155,0.009162978269159794
1789156615662183700,3.31218359375,-0.012217304669320583,-0.019547687843441963,-0.003054326167330146
1789156615782056700,3.432056640625,-0.021380282938480377,-0.07269296050071716,-0.018936822190880775
1789156615862012700,3.5120126953125,-0.05009094998240471,-0.018325956538319588,-0.001832595793530345
1789156615941907700,3.59190771484375,-0.00366519158706069,-0.022602014243602753,-0.013439035043120384
1789156616021802800,3.671802734375,-0.0024434609804302454,-0.02382374368607998,-0.006719517521560192
1789156616101758700,3.7517587890625,-0.021991148591041565,-0.02321287989616394,-0.003054326167330146
1789156616181653800,3.83165380859375,0.00366519158706069,-0.06780604273080826,0.013439035043120384
1789156616261548800,3.911548828125,-0.009773843921720982,-0.2877175211906433,0.3891211748123169
1789156616341413400,3.991413330078125,0.00855211354792118,0.02076941914856434,-0.14477506279945374
1789156616421369300,4.071369384765625,0.007941247895359993,0.0354301854968071,0.024434609338641167
1789156616541212000,4.1912119140625,0.004886921960860491,0.04581489413976669,-0.001832595793530345
1789156616621046000,4.2710458984375,0.018936822190880775,-0.0403171069920063,-0.04214970022439957
1789156616700971500,4.350971435546875,0.009773843921720982,-0.031154127791523933,0.00733038317412138
1789156616780835800,4.4308359375,0.009162978269159794,-0.01771509274840355,-0.012217304669320583
1789156616860731000,4.51073095703125,0.0006108652451075613,-0.009162978269159794,-0.021380282938480377
1789156616940626000,4.5906259765625,0.006108652334660292,-0.04948008432984352,-0.025045474991202354
1789156617020521000,4.67052099609375,-0.013439035043120384,-0.03787364438176155,0.004886921960860491
1789156617100446500,4.750446533203125,-0.009162978269159794,0.02015855349600315,0.08552113175392151
1789156617180372000,4.8303720703125,0.06841690838336945,-0.14049901068210602,-0.24556782841682434
1789156617260328200,4.910328125,0.014049900695681572,-0.030543262138962746,0.030543262138962746
1789156617380201200,5.030201171875,0.056810468435287476,-0.1014036312699318,0.01038470957428217
1789156617460096300,5.11009619140625,0.02015855349600315,0.004886921960860491,-0.1569923609495163
1789156617579969300,5.22996923828125,-0.01771509274840355,0.004886921960860491,-0.02321287989616394
1789156617659925200,5.30992529296875,0.012828170321881771,-0.00855211354792118,-0.06780604273080826
1789156617739834400,5.38983447265625,0.04459316283464432,-0.013439035043120384,-0.07696902006864548
1789156617819729400,5.4697294921875,0.1270599663257599,0.01771509274840355,-0.00733038317412138
1789156617899655000,5.549655029296875,0.20525072515010834,-0.027488935738801956,0.02015855349600315
1789156617979550000,5.629550048828125,-0.010995574295520782,-0.12339477986097336,0.03420845419168472
1789156618099423000,5.749423095703125,0.024434609338641167,0.025656340643763542,0.2987131178379059
1789156618179287600,5.82928759765625,0.10445795953273773,0.042760565876960754,-0.051312681287527084
1789156618259243500,5.909243408203125,-0.014049900695681572,-0.13439035415649414,-0.19120082259178162
1789156618339138600,5.989138671875,0.07513642311096191,-0.16432274878025055,0.02321287989616394
1789156618419003100,6.069003173828125,-0.32559117674827576,-0.23457226157188416,-0.0757472887635231
1789156618498898200,6.148898193359375,-0.05864306539297104,0.06414084881544113,0.31154128909111023
1789156618578823700,6.22882373046875,-0.00855211354792118,0.05375614017248154,0.313373863697052
1789156618658749200,6.308749267578125,0.13561208546161652,0.3127630054950714,-0.060475658625364304
1789156618738644200,6.388644287109375,-0.04337143152952194,-0.036651913076639175,-0.1466076523065567
1789156618858486800,6.50848681640625,0.5222898125648499,0.09407325088977814,0.41599923372268677
1789156618938412300,6.588412353515625,0.37629300355911255,0.033597588539123535,0.06414084881544113
1789156619018337800,6.668337890625,0.42149701714515686,-0.029932396486401558,0.48747047781944275
1789156619098293800,6.748293701171875,0.17776179313659668,-0.21441370248794556,0.33536502718925476
1789156619178250000,6.82825,-0.10567969083786011,-0.1667662113904953,0.02382374368607998
1789156619258206000,6.9082060546875,-0.16004669666290283,-0.17959438264369965,0.13988813757896423
1789156619338101000,6.98810107421875,-0.3738495409488678,0.12522737681865692,-0.09834930300712585
1789156619458035000,7.108034912109375,-0.3237585723400116,0.02321287989616394,-0.01160643994808197
1789156619577908000,7.227907958984375,-0.23335053026676178,-0.10201449692249298,0.26083946228027344
1789156619657894700,7.307894775390625,-0.25595253705978394,-0.21624629199504852,0.182648703455925
1789156619737789700,7.387789794921875,-0.09407325088977814,-0.24617868661880493,-0.1007927656173706
1789156619817684700,7.467684814453125,0.17531833052635193,-0.051312681287527084,0.15332718193531036
1789156619937557800,7.587557861328125,-0.3530801236629486,-0.26633724570274353,-0.5204572081565857
1789156620017483300,7.667483154296875,0.31031954288482666,0.06169738993048668,0.3585779070854187
1789156620097470000,7.747469970703125,0.1612684279680252,0.11239920556545258,-0.03848451003432274
1789156620177365000,7.827364990234375,0.07147123664617538,0.021991148591041565,-0.05497787147760391
1789156620297299000,7.947298828125,0.05375614017248154,-0.22846360504627228,0.10934487730264664
1789156620377255000,8.0272548828125,-0.13561208546161652,-0.04153883829712868,-0.04642575979232788
1789156620497097500,8.147097412109375,-0.7409795522689819,-0.2779437005519867,-0.5314527750015259
1789156620577023000,8.22702294921875,-0.15332718193531036,-0.18570303916931152,-0.04459316283464432
1789156620656887600,8.306887451171875,-0.04459316283464432,-0.07696902006864548,0.1667662113904953
1789156620736874200,8.386874267578126,-0.18936823308467865,-0.18081611394882202,-0.10995574295520782
1789156620816708000,8.4667080078125,-0.02015855349600315,-0.07330382615327835,0.03726277872920036
1789156620896664300,8.546664306640626,0.2376265823841095,0.06169738993048668,0.048258353024721146
1789156620976589800,8.62658984375,0.2767219543457031,-0.21074850857257843,0.003054326167330146
1789156621056545800,8.7065458984375,0.7257078886032104,0.41722095012664795,0.16310101747512817
1789156621136410400,8.786410400390626,0.3335324227809906,0.04948008432984352,0.001832595793530345
1789156621216366300,8.866366455078126,0.36102136969566345,-0.00855211354792118,0.2431243658065796
1789156621296322300,8.946322265625,0.2565633952617645,-0.13377949595451355,0.16310101747512817
1789156621416164900,9.066164794921875,-0.11056660860776901,0.014049900695681572,0.1411098688840866
1789156621536068600,9.186068603515626,-0.7556403279304504,-0.036041051149368286,-0.5265658497810364
1789156621616024600,9.266024658203126,-0.09773843735456467,-0.11545353382825851,-0.3439171314239502
1789156621735928000,9.385927978515625,-0.17287486791610718,-0.11301007121801376,0.03787364438176155
1789156621815823000,9.465822998046875,-0.16493362188339233,-0.15027284622192383,0.14355333149433136
1789156621895718100,9.54571826171875,0.09346238523721695,-0.014049900695681572,-0.1771509200334549
1789156621975613200,9.62561328125,0.4502076804637909,1.0977247953414917,-0.1563815027475357
1789156622055569200,9.705569091796875,0.018936822190880775,0.32620203495025635,-0.3084869384765625
1789156622135494700,9.78549462890625,0.4715879559516907,-0.4807509481906891,0.19853121042251587
1789156622215451000,9.865450927734376,0.2590068578720093,-0.10995574295520782,0.2626720666885376
1789156622295406800,9.94540673828125,0.7391469478607178,0.19608774781227112,0.20952677726745605
1789156622375302000,10.025302001953126,0.23457226157188416,-0.22052235901355743,0.21991148591041565
1789156622455197000,10.105197021484376,-0.07819075137376785,-0.20097467303276062,0.060475658625364304
1789156622535122400,10.185122314453125,-0.7678576111793518,-0.27977627515792847,-0.3579670190811157
1789156622615017500,10.265017578125,-0.03420845419168472,0.45631635189056396,-0.16554448008537292
1789156622694973400,10.344973388671875,0.09407325088977814,-0.10690141469240189,0.5021312236785889
1789156622774929200,10.42492919921875,-0.08735372871160507,0.152105450630188,0.2217440903186798
1789156622854854700,10.504854736328125,-0.13744467496871948,0.04886921867728233,0.28649580478668213
1789156622934749700,10.584749755859375,-0.03787364438176155,-0.013439035043120384,-0.25961771607398987
1789156623014644700,10.664644775390625,0.40744712948799133,-0.006719517521560192,-0.04337143152952194
1789156623094570200,10.7445703125,-0.06536258012056351,-0.0910189226269722,-0.21380282938480377
1789156623174495700,10.824495849609375,0.07941248267889023,-0.09834930300712585,-0.2370157092809677
1789156623254390800,10.904390869140625,0.05375614017248154,0.033597588539123535,-0.11728613078594208
1789156623334285800,10.984285888671875,0.07696902006864548,-0.2993239760398865,0.05253441259264946
1789156623414241800,11.06424169921875,-0.01160643994808197,-0.18814650177955627,0.012217304669320583
1789156623494167300,11.144167236328125,-0.3139847218990326,-0.1716531366109848,0.025045474991202354
1789156623574062300,11.224062255859375,-0.6548475623130798,-0.19364428520202637,-0.24678955972194672
1789156623653987800,11.30398779296875,-0.6206390857696533,0.4544837474822998,-0.31459560990333557
1789156623733883000,11.3838828125,-0.33475416898727417,-0.16859880089759827,-0.06291911751031876
1789156623813747500,11.46374755859375,-0.15027284622192383,0.012217304669320583,0.3878994286060333
1789156623893673000,11.5436728515625,-0.17837265133857727,-0.1973094791173935,-0.03848451003432274
1789156623973598500,11.623598388671875,-0.045204028487205505,0.10995574295520782,-0.1667662113904953
1789156624053585200,11.703585205078125,0.43615779280662537,0.22968533635139465,0.06841690838336945
1789156624133480200,11.783480224609375,0.12522737681865692,-0.313373863697052,-0.27000242471694946
1789156624213375200,11.863375244140625,0.7782423496246338,0.12095131725072861,0.06963863968849182
1789156624293300700,11.94330078125,0.16982053220272064,-0.014049900695681572,0.2431243658065796
1789156624373256700,12.023256591796875,0.2028072625398636,-0.13927727937698364,-0.06291911751031876
1789156624453182200,12.10318212890625,0.15821409225463867,-0.06841690838336945,0.15760323405265808
1789156624533107700,12.183107666015625,0.2015855312347412,-0.2015855312347412,0.2382374405860901
1789156624613064000,12.26306396484375,-0.03176499158143997,0.23457226157188416,0.09224065393209457
1789156624692989400,12.342989501953125,-0.5528330206871033,-0.00733038317412138,-0.17837265133857727
1789156624772975900,12.422975830078125,-0.12461651116609573,-0.03481931984424591,-0.13561208546161652
1789156624892849000,12.542848876953125,-0.04337143152952194,0.06230825558304787,0.3176499307155609
1789156624972805000,12.62280517578125,-0.1612684279680252,-0.13805554807186127,-0.12400564551353455
1789156625052730600,12.702730712890625,0.0659734457731247,-0.0403171069920063,-0.06108652427792549
1789156625132595200,12.78259521484375,0.902247965335846,0.17104226350784302,0.41233405470848083
1789156625212520700,12.862520751953125,0.36713001132011414,-0.22052235901355743,0.06230825558304787
1789156625292415700,12.942415771484375,0.375071257352829,0.5809328556060791,-0.2718350291252136
1789156625372341200,13.02234130859375,-0.10934487730264664,-0.015882495790719986,-0.2767219543457031
1789156625452266800,13.102266845703125,0.2168571650981903,-0.1459967941045761,-0.18387043476104736
1789156625532161800,13.182161865234375,-0.0507018156349659,-0.4893030524253845,0.08552113175392151
1789156625612117800,13.26211767578125,0.12461651116609573,-0.11789698898792267,0.042760565876960754
1789156625692043300,13.342043212890625,-0.11667526513338089,0.342695415019989,0.4282165467739105
1789156625811947000,13.461947021484375,-0.23457226157188416,0.5009095072746277,-0.7837401032447815
1789156625891841800,13.541841796875,0.18448130786418915,0.17776179313659668,-0.3433062732219696
1789156625971736800,13.62173681640625,-0.4715879559516907,-0.6114761233329773,1.1343767642974854
1789156626091640600,13.741640625,-0.06291911751031876,-0.06780604273080826,-0.4447098970413208
1789156626171596500,13.821596435546875,0.2174680233001709,0.03420845419168472,-0.07452555745840073
1789156626251552500,13.901552490234375,0.4807509481906891,0.28527405858039856,0.34697145223617554
1789156626371395000,14.02139501953125,0.6908885836601257,0.43737950921058655,0.028099801391363144
1789156626451290000,14.1012900390625,0.2779437005519867,-0.06902777403593063,0.25534167885780334
1789156626531215600,14.181215576171875,0.13500121235847473,-0.11484266817569733,-0.1062905490398407
1789156626651119400,14.301119384765625,-0.016493361443281174,-0.30054569244384766,0.3121521472930908
1789156626731014100,14.38101416015625,-0.323147714138031,-0.3390302062034607,0.08735372871160507
1789156626810909200,14.4609091796875,-0.35735616087913513,-0.29504790902137756,0.3481931984424591
1789156626890865400,14.540865478515625,-0.5894849896430969,0.11545353382825851,-0.5094616413116455
1789156626970791000,14.620791015625,-0.48380526900291443,-0.07513642311096191,-0.013439035043120384
1789156627090724900,14.740724853515625,-0.37201693654060364,-0.1270599663257599,0.04581489413976669
1789156627170650600,14.820650634765625,-0.3139847218990326,0.02626720629632473,-0.10018189996480942
1789156627250606600,14.900606689453125,-0.012828170321881771,-0.04764748737215996,-0.27550023794174194
1789156627330562600,14.9805625,0.4746423065662384,0.11362093687057495,0.22540926933288574
1789156627410518800,15.060518798828125,0.30482175946235657,0.5705481171607971,-0.14355333149433136
1789156627490474800,15.140474853515625,0.11423180252313614,-0.2571742534637451,-0.036651913076639175
1789156627570369800,15.220369873046875,0.24373523890972137,-0.20525072515010834,0.16859880089759827
1789156627650325800,15.30032568359375,0.19547687470912933,-0.2070833146572113,0.16249015927314758
1789156627730251300,15.380251220703125,-0.031154127791523933,-0.19853121042251587,0.19975294172763824
1789156627810199800,15.46019970703125,-0.2626720666885376,-0.18387043476104736,-0.02626720629632473
1789156627890094800,15.5400947265625,-0.7709119319915771,-0.3286454975605011,-0.5845980644226074
1789156627970020400,15.620020263671876,-0.2070833146572113,0.06963863968849182,-0.10445795953273773
1789156628049976300,15.699976318359376,0.02076941914856434,-0.02321287989616394,-0.03481931984424591
1789156628129871400,15.779871337890626,-0.09773843735456467,-0.051312681287527084,0.11484266817569733
1789156628209766400,15.859766357421876,-0.042760565876960754,-0.02076941914856434,-0.02382374368607998
1789156628289661400,15.939661376953126,0.17348572611808777,0.03176499158143997,-0.001832595793530345
1789156628369556500,16.019556396484376,0.42577308416366577,0.02015855349600315,-0.2028072625398636
1789156628449512400,16.099512451171876,0.2736676335334778,0.5100724697113037,-0.34697145223617554
1789156628529438000,16.17943798828125,0.34758231043815613,-0.28588494658470154,0.2480112910270691
1789156628609363500,16.259363525390626,0.26572638750076294,-0.14049901068210602,0.00733038317412138
1789156628689289000,16.3392890625,0.17592918872833252,-0.2828305959701538,0.24556782841682434
1789156628769214700,16.419214599609376,0.06658431142568588,-0.16737708449363708,0.14905111491680145
1789156628849140200,16.49914013671875,-0.16371189057826996,0.2015855312347412,0.10384709388017654
1789156628929035300,16.57903515625,-0.8973610401153564,-0.15943582355976105,-0.6963863968849182
1789156629008930300,16.658930419921877,0.006719517521560192,-0.02626720629632473,0.02687807008624077
1789156629088825000,16.7388251953125,0.0757472887635231,0.03420845419168472,0.11362093687057495
1789156629168720100,16.81872021484375,-0.00427605677396059,-0.11728613078594208,0.04642575979232788
1789156629248615200,16.898615234375,-0.07941248267889023,-0.04092797264456749,0.08796459436416626
1789156629328510200,16.97851025390625,0.12278391420841217,0.182648703455925,0.06536258012056351
1789156629408405200,17.0584052734375,0.11545353382825851,-0.32070425152778625,-0.03848451003432274
1789156629488361500,17.138361572265627,0.4453207552433014,0.6444628238677979,-0.13744467496871948
1789156629568256300,17.21825634765625,0.009773843921720982,-0.2535090744495392,0.022602014243602753
1789156629648151300,17.2981513671875,0.323147714138031,-0.13316862285137177,0.3683517575263977
1789156629728076800,17.378076904296876,0.1508837193250656,-0.32681289315223694,0.14844025671482086
1789156629808002600,17.45800244140625,-0.03237585723400116,-0.24617868661880493,0.19608774781227112
1789156629887897600,17.537897705078127,-0.1918116807937622,0.23945917189121246,0.12461651116609573
1789156629967823000,17.617822998046876,-0.8741481900215149,-0.3286454975605011,-0.8148942589759827
1789156630047687400,17.6976875,-0.23884831368923187,-0.03298672288656235,0.07696902006864548
1789156630127643600,17.7776435546875,-0.3530801236629486,0.01160643994808197,-0.11972958594560623
1789156630207569200,17.857569091796876,-0.1771509200334549,-0.1466076523065567,0.10506882518529892
1789156630287494700,17.93749462890625,-0.16371189057826996,-0.11545353382825851,-0.02626720629632473
1789156630367420200,18.017420166015626,0.23945917189121246,0.10201449692249298,-0.08918632566928864
1789156630447345700,18.097345703125,0.0354301854968071,0.0708603709936142,-0.4239404797554016
1789156630527302000,18.177302001953127,0.5870414972305298,0.1514945775270462,0.5106833577156067
1789156630607227400,18.257227294921876,0.24434609711170197,0.08185594528913498,0.2076941877603531
1789156630687122400,18.337122314453126,0.23579397797584534,-0.16493362188339233,0.31581732630729675
1789156630767017500,18.417017578125,0.22479841113090515,-0.24678955972194672,0.14844025671482086
1789156630846973400,18.496973388671876,-0.07024950534105301,-0.24923302233219147,0.15760323405265808
1789156630926899000,18.57689892578125,-0.04703662544488907,0.05009094998240471,-0.04214970022439957
1789156631006824400,18.656824462890626,-0.7183775305747986,-0.29504790902137756,-0.7739662528038025
1789156631086750000,18.73675,-0.11301007121801376,-0.02932153269648552,-0.07819075137376785
1789156631166645000,18.81664501953125,-0.01038470957428217,0.0806342139840126,0.11789698898792267
1789156631246540000,18.8965400390625,-0.15821409225463867,-0.09957103431224823,0.021991148591041565
1789156631326465500,18.976465576171876,-0.12339477986097336,-0.07513642311096191,-0.09468411654233932
1789156631406391000,19.05639111328125,0.1368338167667389,-0.09224065393209457,-0.1765400618314743
1789156631486316500,19.136316650390626,0.4593706727027893,0.001832595793530345,0.14782938361167908
1789156631566272800,19.216272705078126,0.4398229718208313,0.607810914516449,-0.14294247329235077
1789156631646198300,19.2961982421875,0.2028072625398636,0.05314527451992035,0.14233160018920898
1789156631766071300,19.4160712890625,0.29077184200286865,0.11972958594560623,0.3396410644054413
1789156631845966300,19.49596630859375,0.2474004179239273,-0.28955012559890747,0.09162978827953339
1789156631925861400,19.575861328125,0.03298672288656235,-0.41722095012664795,0.13011430203914642
1789156632005817300,19.6558173828125,-0.14538592100143433,0.23518311977386475,-0.27488934993743896
1789156632085742800,19.735742919921876,-0.8692612648010254,0.025045474991202354,-0.6004805564880371
1789156632165638000,19.815637939453126,-0.12828169763088226,0.05375614017248154,0.3732386529445648
1789156632245533000,19.895532958984376,-0.16920967400074005,0.07757988572120667,0.23640485107898712
1789156632325458400,19.97545849609375,-0.2278527319431305,-0.04642575979232788,-0.010995574295520782
1789156632405384000,20.055384033203126,-0.0910189226269722,-0.13316862285137177,-0.22602014243602753
1789156632485309700,20.135309814453127,0.17470745742321014,-0.08491026610136032,-0.08552113175392151
1789156632565235200,20.215235107421876,0.10812314599752426,0.11911872029304504,-0.27000242471694946
1789156632645160700,20.29516064453125,0.5351179838180542,0.3781255781650543,-0.17531833052635193
1789156632725086200,20.375086181640626,0.5552765130996704,-0.3139847218990326,0.18020524084568024
1789156632804950800,20.45495068359375,0.5699372887611389,-0.04459316283464432,0.03481931984424591
1789156632884889600,20.5348896484375,0.4954117238521576,-0.09957103431224823,0.26572638750076294
1789156632964815000,20.614815185546874,0.23884831368923187,-0.08002334833145142,0.1722639948129654
1789156633044740600,20.69474072265625,-0.2076941877603531,0.13805554807186127,0.012828170321881771
1789156633124666000,20.774666015625,-0.6707300543785095,-0.42638394236564636,0.23151792585849762
1789156633204591600,20.854591552734377,-0.07880161702632904,0.1472185254096985,-0.016493361443281174
1789156633324403700,20.97440380859375,0.16982053220272064,-0.30054569244384766,-0.09896016865968704
1789156633404329200,21.0543291015625,0.2742784917354584,-0.025656340643763542,0.04764748737215996
1789156633484254700,21.134254638671877,0.3029891550540924,0.039706241339445114,-0.14355333149433136
1789156633564149800,21.214149658203127,1.0512990951538086,0.2535090744495392,0.13011430203914642
1789156633644075300,21.2940751953125,1.1349875926971436,-0.30543261766433716,-0.39217549562454224
1789156633724000800,21.374000732421877,1.9657644033432007,0.304210901260376,-0.013439035043120384
1789156633803987500,21.453987548828124,1.5864170789718628,0.7153232097625732,0.16920967400074005
1789156633883882500,21.533882568359374,1.454470157623291,0.4856378734111786,0.3433062732219696
1789156633963746800,21.613746826171877,1.2657127380371094,0.03726277872920036,0.1258382350206375
1789156634043611400,21.693611328125,0.7202101349830627,0.16493362188339233,0.2021963894367218
1789156634123537000,21.773536865234377,0.6890559792518616,0.6951646208763123,-0.18387043476104736
1789156634203493000,21.8534931640625,-0.11362093687057495,0.7678576111793518,-0.49357911944389343
1789156634283479600,21.9334794921875,0.6090326309204102,0.34513887763023376,0.12400564551353455
1789156634363374600,22.01337451171875,0.8875871896743774,0.2834414839744568,-0.006108652334660292
1789156634443300000,22.093300048828127,0.7770205736160278,0.19425514340400696,-0.028099801391363144
1789156634563112200,22.2131123046875,0.7715228199958801,0.4294382631778717,0.10934487730264664
1789156634643037700,22.29303759765625,0.9553932547569275,0.5925393104553223,0.0806342139840126
1789156634762880300,22.41288037109375,1.2034045457839966,0.6310238242149353,-0.07513642311096191
1789156634842775300,22.492775390625,0.799011766910553,0.21441370248794556,0.029932396486401558
1789156634922640000,22.572639892578124,0.8014551997184753,0.09162978827953339,0.0403171069920063
1789156635002565400,22.6525654296875,0.8509352803230286,-0.21074850857257843,-0.016493361443281174
1789156635082429700,22.7324296875,0.5791002511978149,-0.051312681287527084,0.24373523890972137
1789156635202272300,22.852272216796877,-0.3188716471195221,-0.2840523421764374,-0.24434609711170197
1789156635282197800,22.93219775390625,-0.8857545852661133,0.3090978264808655,-0.7556403279304504
1789156635362062300,23.012062255859377,-0.3274237811565399,0.04214970022439957,-0.14844025671482086
1789156635441987800,23.09198779296875,0.07024950534105301,0.18081611394882202,0.4392121136188507
1789156635521883000,23.1718828125,0.004886921960860491,-0.1319468915462494,0.3225368559360504
1789156635601808400,23.251808349609377,0.009162978269159794,-0.5247332453727722,0.29077184200286865
1789156635681764600,23.3317646484375,0.5186246037483215,0.32559117674827576,0.15515977144241333
1789156635761659600,23.41165966796875,0.3170390725135803,0.11667526513338089,-0.33719760179519653
1789156635841585200,23.491585205078124,0.8460483551025391,0.14294247329235077,0.16249015927314758
1789156635921510700,23.5715107421875,0.33292156457901,0.6200281977653503,-0.34086281061172485
1789156636001436200,23.651436279296874,0.4764748811721802,0.06841690838336945,0.4648684561252594
1789156636081361700,23.731361572265627,0.17837265133857727,-0.23640485107898712,0.1417207419872284
1789156636161256700,23.811256591796877,-0.0806342139840126,-0.29016098380088806,0.1618792861700058
1789156636241182200,23.89118212890625,-0.2987131178379059,-0.025045474991202354,0.08735372871160507
1789156636321077200,23.9710771484375,-0.5766568183898926,0.6188064813613892,-0.342695415019989
1789156636401033200,24.051033203125,-0.07391469180583954,-0.1062905490398407,0.04642575979232788
1789156636480958700,24.130958740234377,-0.3219259977340698,0.08674286305904388,-0.2278527319431305
1789156636560915000,24.2109150390625,-0.006719517521560192,0.1459967941045761,0.4349360466003418
1789156636640840400,24.29084033203125,-0.048258353024721146,-0.05009094998240471,-0.048258353024721146
1789156636720735500,24.370735595703124,0.26511552929878235,0.25961771607398987,-0.7440338730812073
1789156636800722000,24.450721923828127,0.31642818450927734,-0.5088507533073425,0.26633724570274353
1789156636880678100,24.53067822265625,0.5375614166259766,-0.02382374368607998,0.059864792972803116
1789156636960573200,24.6105732421875,-0.05192354694008827,0.1062905490398407,-0.09285151958465576
1789156637040407000,24.690406982421877,0.11972958594560623,0.10690141469240189,0.28527405858039856
1789156637120363300,24.77036328125,0.1007927656173706,-0.49296826124191284,0.16982053220272064
1789156637200258000,24.850258056640627,-0.1362229436635971,-0.4392121136188507,0.06108652427792549
1789156637280153000,24.930153076171877,-0.07391469180583954,0.21441370248794556,0.04581489413976669
1789156637360048000,25.010048095703127,-0.8313875794410706,0.048258353024721146,-0.48747047781944275
1789156637439943200,25.089943115234377,-0.19058994948863983,-0.024434609338641167,0.08307767659425735
1789156637519868700,25.16986865234375,-0.19914206862449646,0.006719517521560192,0.24129177629947662
1789156637639741700,25.28974169921875,-0.2828305959701538,-0.07513642311096191,-0.10812314599752426
1789156637759676000,25.409676025390624,0.34636059403419495,0.3952298164367676,0.14966198801994324
1789156637839571000,25.489571044921874,0.19425514340400696,-0.6426302194595337,-0.47219884395599365
1789156637919475000,25.569474853515626,0.9077457785606384,-0.13988813757896423,0.19120082259178162
1789156637999339300,25.64933935546875,0.36590829491615295,0.32070425152778625,0.3176499307155609
1789156638079295500,25.72929541015625,0.26511552929878235,-0.02015855349600315,0.3286454975605011
1789156638159221000,25.809220947265626,0.06352998316287994,-0.7861835956573486,0.24923302233219147
1789156638239116000,25.889115966796876,0.34513887763023376,-0.413555771112442,0.5998696684837341
1789156638319041500,25.96904150390625,-0.37140607833862305,0.04092797264456749,0.031154127791523933
1789156638398967000,26.048967041015626,-1.076344609260559,0.403781920671463,-0.816726803779602
1789156638478831600,26.12883154296875,-0.3805690407752991,-0.12889257073402405,0.22296582162380219
1789156638558757000,26.208757080078126,-0.07819075137376785,-0.11301007121801376,0.22113321721553802
1789156638638682600,26.2886826171875,-0.1368338167667389,-0.014049900695681572,0.1062905490398407
1789156638718638600,26.368638671875,-0.04214970022439957,0.10995574295520782,0.0507018156349659
1789156638798564000,26.448564208984376,0.03787364438176155,0.13744467496871948,-0.09712757170200348
1789156638878520300,26.528520263671876,0.024434609338641167,-0.646295428276062,-0.8961393237113953
1789156638958506800,26.6085068359375,0.4538728892803192,0.12339477986097336,-0.05009094998240471
1789156639038340900,26.6883408203125,0.1869247704744339,0.36102136969566345,0.11239920556545258
1789156639118236000,26.76823583984375,0.14538592100143433,-0.21930062770843506,0.06902777403593063
1789156639198161400,26.848161376953126,0.07269296050071716,-0.46547931432724,0.384845107793808
1789156639278087000,26.9280869140625,-0.1514945775270462,-0.2028072625398636,0.23518311977386475
1789156639358073600,27.008073486328126,-0.19792033731937408,-0.2076941877603531,-0.1417207419872284
1789156639437938000,27.08793798828125,-0.4789183437824249,0.5369505286216736,-0.7391469478607178
1789156639557811000,27.20781103515625,-0.15515977144241333,0.03420845419168472,0.16737708449363708
1789156639637736400,27.287736328125,-0.09040805697441101,0.08185594528913498,0.33536502718925476
1789156639717662200,27.367662109375,-0.04337143152952194,-0.22357667982578278,0.13377949595451355
1789156639797557200,27.44755712890625,-0.19120082259178162,-0.7031059265136719,-0.4331034719944
1789156639917460700,27.567460693359376,0.07330382615327835,0.24862214922904968,-0.8765916228294373
1789156639997386200,27.64738623046875,0.6340781450271606,-0.17104226350784302,0.01160643994808197
1789156640077281300,27.72728125,0.5516113042831421,0.1160643994808197,0.4288274049758911
1789156640157176300,27.80717626953125,0.24678955972194672,0.05619960278272629,0.4080579876899719
1789156640237101800,27.887101806640626,0.04214970022439957,-0.4056145250797272,0.4599815309047699
1789156640316996900,27.966996826171876,-0.06902777403593063,0.05314527451992035,-0.01710422709584236
1789156640396922400,28.04692236328125,-0.6163630485534668,-0.5363397002220154,-0.5143485069274902
1789156640476817400,28.1268173828125,-0.21991148591041565,-0.10995574295520782,0.021991148591041565
1789156640556743000,28.206742919921876,-0.4697553813457489,0.056810468435287476,-0.5546656250953674
1789156640676646400,28.326646484375,-0.20525072515010834,0.021380282938480377,0.19120082259178162
1789156640756541400,28.40654150390625,-0.07208210229873657,-0.26633724570274353,0.12217304855585098
1789156640836467000,28.486467041015626,0.01771509274840355,-0.23396138846874237,-0.10812314599752426
1789156640916392400,28.566392333984375,0.2321287989616394,-0.2687807083129883,-0.4331034719944
1789156640996287500,28.64628759765625,0.8344419002532959,0.15332718193531036,0.23518311977386475
1789156641076213200,28.726213134765626,0.41172316670417786,0.39217549562454224,0.3445279896259308
1789156641156108000,28.80610791015625,0.2638937830924988,0.2632829248905182,0.2272418737411499
1789156641236064300,28.886064208984376,0.14355333149433136,-0.7092145681381226,0.28038713335990906
1789156641315989800,28.96598974609375,-0.31520646810531616,-0.2926044464111328,-0.01038470957428217
1789156641395915300,29.045915283203126,-0.6017022728919983,-0.34697145223617554,-0.21807889640331268
1789156641475810300,29.125810302734376,-0.6591235995292664,0.39584067463874817,-0.7006624341011047
1789156641555735800,29.20573583984375,-0.09529497474431992,-0.22540926933288574,0.10323622822761536
1789156641635661300,29.285661376953126,0.0354301854968071,-0.1814269721508026,-0.24068090319633484
1789156641715556400,29.365556396484376,0.01466076634824276,0.022602014243602753,0.2583959996700287
1789156641795512300,29.44551220703125,0.13255776464939117,-0.23884831368923187,0.02015855349600315
1789156641875438000,29.52543798828125,0.48808133602142334,0.7464773058891296,0.20463985204696655
1789156641955333000,29.6053330078125,0.3830125033855438,0.4447098970413208,-0.45326200127601624
1789156642035228000,29.685227783203125,0.45142942667007446,-0.4538728892803192,0.00733038317412138
1789156642155131600,29.805131591796876,0.2974913716316223,-0.10445795953273773,0.21380282938480377
1789156642235026700,29.885026611328126,0.38728857040405273,-0.8393288254737854,0.4392121136188507
1789156642354899700,30.004899658203126,-0.45326200127601624,-0.14477506279945374,-0.28649580478668213
1789156642434855700,30.084855712890626,-1.1056660413742065,-0.025656340643763542,-0.6151412725448608
1789156642514781200,30.16478125,-0.23640485107898712,0.5119050741195679,0.26145032048225403
1789156642594676200,30.24467626953125,-0.38728857040405273,-0.11911872029304504,-0.5100724697113037
1789156642674571300,30.3245712890625,-0.21380282938480377,0.19975294172763824,-0.06902777403593063
1789156642754496800,30.404496826171876,0.060475658625364304,-0.07269296050071716,0.036651913076639175
1789156642834422300,30.48442236328125,0.2541199326515198,-0.2028072625398636,-0.22663100063800812
1789156642914395100,30.56439501953125,0.7568620443344116,0.22052235901355743,0.31459560990333557
1789156642994351000,30.64435107421875,0.5528330206871033,0.7305948138237,0.06352998316287994
1789156643074246100,30.72424609375,0.4905247986316681,-0.21563543379306793,0.2834414839744568
1789156643154172000,30.804171875,0.13744467496871948,0.02687807008624077,-0.2974913716316223
1789156643234128000,30.8841279296875,0.2669481039047241,-0.16432274878025055,0.25473082065582275
1789156643313992400,30.963992431640627,-0.028099801391363144,-0.3683517575263977,-0.29138273000717163
1789156643393856800,31.043856689453126,-0.07269296050071716,-0.031154127791523933,0.04459316283464432
1789156643473751800,31.123751708984376,-0.9847147464752197,0.2840523421764374,-0.8057312369346619
1789156643553646800,31.203646728515626,-0.1918116807937622,-0.11423180252313614,0.192422553896904
1789156643633602800,31.283602783203126,-0.1258382350206375,-0.09346238523721695,-0.28527405858039856
1789156643713528600,31.363528564453127,0.01466076634824276,-0.02321287989616394,0.29504790902137756
1789156643793484500,31.443484619140627,-0.0403171069920063,-0.2321287989616394,0.06230825558304787
1789156643873379600,31.523379638671877,0.09529497474431992,-0.4056145250797272,0.05314527451992035
1789156643953274600,31.603274658203127,0.423329621553421,0.1869247704744339,0.15943582355976105
1789156644073208600,31.72320849609375,0.5528330206871033,-0.645684540271759,0.12461651116609573
1789156644153073200,31.8030732421875,0.2675589919090271,0.21135938167572021,0.1362229436635971
1789156644232998700,31.88299853515625,0.14905111491680145,-0.30054569244384766,0.2021963894367218
1789156644312924200,31.962924072265626,-0.1368338167667389,0.10934487730264664,-0.0757472887635231
1789156644392819200,32.04281909179687,-0.27977627515792847,0.21441370248794556,-0.8356636762619019
1789156644472744700,32.12274462890625,-0.8692612648010254,-0.36102136969566345,0.22663100063800812
1789156644552609300,32.202609375,-0.24068090319633484,0.17776179313659668,-0.030543262138962746
1789156644632565200,32.28256518554687,-0.3640756905078888,-0.05742133408784866,0.13439035415649414
1789156644752407800,32.40240771484375,0.04337143152952194,-0.4905247986316681,0.182648703455925
1789156644832302800,32.482302734375,0.06352998316287994,-0.14355333149433136,0.36224308609962463
1789156644912258800,32.5622587890625,0.2730567753314972,-0.014049900695681572,0.35613444447517395
1789156645032040400,32.68204052734375,0.32620203495025635,0.4899139404296875,-0.17959438264369965
1789156645151883000,32.80188305664063,0.14416420459747314,0.31581732630729675,0.1062905490398407
1789156645231808500,32.88180859375,-0.025656340643763542,-0.34086281061172485,-0.04459316283464432
1789156645311734000,32.96173413085938,0.025656340643763542,0.00733038317412138,0.3066543638706207
1789156645431607000,33.08160693359375,-0.19425514340400696,0.2223549485206604,0.14966198801994324
1789156645511563000,33.16156298828125,-0.7379252314567566,0.3830125033855438,-0.6976081132888794
1789156645591427600,33.24142749023437,-0.08246681094169617,-0.18387043476104736,0.1563815027475357
1789156645671353000,33.32135302734375,-0.03298672288656235,-0.06719517707824707,0.17531833052635193
1789156645751278600,33.40127856445312,-0.1765400618314743,-0.0012217304902151227,0.13866640627384186
1789156645831204400,33.48120434570313,0.05742133408784866,-0.12400564551353455,0.1007927656173706
1789156645911068700,33.56106860351562,0.3066543638706207,0.2779437005519867,0.13927727937698364
1789156645991025000,33.64102490234375,-0.15882496535778046,-0.23884831368923187,-0.788627028465271
1789156646070950400,33.72095043945313,0.4905247986316681,-0.054367005825042725,0.06780604273080826
1789156646150876000,33.8008759765625,0.2321287989616394,0.1722639948129654,-0.04764748737215996
1789156646230771000,33.88077099609375,0.15271630883216858,0.039706241339445114,0.24862214922904968
1789156646310666000,33.960666015625,0.07941248267889023,-0.35613444447517395,0.23579397797584534
1789156646390591500,34.04059155273438,0.04459316283464432,-0.2681698501110077,0.34697145223617554
1789156646470517000,34.12051708984375,-0.1618792861700058,-0.08979719132184982,-0.22907446324825287
1789156646550442500,34.2004423828125,-0.7715228199958801,0.2565633952617645,-0.3683517575263977
1789156646630307000,34.28030712890625,-0.2382374405860901,-0.2565633952617645,0.2675589919090271
1789156646750180000,34.40018017578125,-0.43676865100860596,-0.09834930300712585,0.17470745742321014
1789156646830105600,34.48010571289063,-0.1771509200334549,-0.06658431142568588,0.2828305959701538
1789156646910061600,34.5600615234375,0.04703662544488907,0.192422553896904,0.23579397797584534
1789156646989956600,34.63995654296875,0.4129449129104614,0.2828305959701538,0.04214970022439957
1789156647069882000,34.71988208007812,0.3023782968521118,0.14966198801994324,-0.4202753007411957
1789156647149838300,34.79983837890625,0.31093040108680725,-0.32681289315223694,-0.19364428520202637
1789156647229794300,34.87979418945312,0.33108896017074585,-0.11301007121801376,-0.024434609338641167
1789156647309689300,34.959689453125,0.28099802136421204,-0.14416420459747314,0.1765400618314743
1789156647389614800,35.03961474609375,0.11301007121801376,-0.08552113175392151,0.1313360333442688
1789156647469540400,35.11954028320312,-0.021380282938480377,0.022602014243602753,-0.029932396486401558
1789156647549435400,35.19943530273437,-0.5461135506629944,-0.5302310585975647,-0.588874101638794
1789156647629330400,35.27933032226562,-0.30970868468284607,0.04581489413976669,-0.5302310585975647
1789156647709256000,35.359255859375,-0.13316862285137177,-0.021991148591041565,0.10262536257505417
1789156647789151000,35.43915087890625,-0.22602014243602753,0.08002334833145142,0.35735616087913513
1789156647869107200,35.51910717773438,-0.152105450630188,0.006108652334660292,0.15271630883216858
1789156647949002000,35.599001953125,-0.009773843921720982,0.07757988572120667,-0.1869247704744339
1789156648028996000,35.67899609375,0.34025195240974426,0.19914206862449646,0.06963863968849182
1789156648108921900,35.758921875,0.27000242471694946,0.6805039048194885,-0.3591887652873993
1789156648188877800,35.8388779296875,0.2669481039047241,-0.46303585171699524,-0.045204028487205505
1789156648268803300,35.91880322265625,0.313373863697052,-0.18936823308467865,0.11423180252313614
1789156648348728800,35.998728759765626,0.10690141469240189,-0.2125810980796814,0.21135938167572021
1789156648428624000,36.078623779296876,0.03176499158143997,-0.2736676335334778,0.4245513379573822
1789156648508519000,36.158518798828126,-0.14416420459747314,0.2583959996700287,0.02626720629632473
1789156648588383500,36.238383544921874,-0.9046914577484131,-0.15515977144241333,-0.9285151958465576
1789156648708317400,36.3583173828125,-0.06658431142568588,-0.26939156651496887,0.3854559659957886
1789156648788182000,36.43818212890625,-0.14355333149433136,0.030543262138962746,0.09162978827953339
1789156648868107500,36.518107421875,-0.07330382615327835,-0.2681698501110077,0.20097467303276062
1789156648948002600,36.59800244140625,-0.036651913076639175,-0.16554448008537292,-0.06963863968849182
1789156649027897600,36.677897705078124,0.4294382631778717,0.13011430203914642,0.02015855349600315
1789156649107853600,36.757853515625,0.13316862285137177,-0.1661553531885147,-0.7397578358650208
1789156649187779000,36.837779052734376,0.5424483418464661,0.10690141469240189,0.08674286305904388
1789156649267674000,36.917674072265626,0.01038470957428217,0.09651670604944229,-0.23640485107898712
1789156649347630300,36.99763037109375,0.19058994948863983,-0.048258353024721146,0.3439171314239502
1789156649427525400,37.077525390625,0.10873401165008545,-0.3732386529445648,0.13377949595451355
1789156649507451000,37.157450927734374,-0.10506882518529892,-0.2321287989616394,0.06902777403593063
1789156649587376400,37.23737646484375,-0.2125810980796814,-0.01771509274840355,0.09773843735456467
1789156649667271400,37.317271484375,-0.8332201838493347,-0.30543261766433716,0.17043140530586243
1789156649747197000,37.397197021484374,-0.35735616087913513,-0.06719517707824707,-0.27000242471694946
1789156649827122400,37.477122314453126,-0.1869247704744339,0.16249015927314758,0.015271631069481373
1789156649907017500,37.557017578125,-0.09529497474431992,-0.001832595793530345,0.03237585723400116
1789156649986882000,37.636882080078124,-0.0403171069920063,-0.15027284622192383,-0.010995574295520782
1789156650066838000,37.716838134765624,0.32070425152778625,0.303600013256073,0.08002334833145142
1789156650146733000,37.796733154296874,0.3543018400669098,-0.38117989897727966,-0.12950342893600464
1789156650226628000,37.876628173828124,0.6572909951210022,0.2974913716316223,0.13744467496871948
1789156650306584000,37.956583984375,0.38240164518356323,0.342695415019989,0.0507018156349659
1789156650386540000,38.0365400390625,0.2926044464111328,-0.05925392732024193,0.10812314599752426
1789156650466465800,38.1164658203125,0.32498031854629517,-0.35185837745666504,-0.0024434609804302454
1789156650546360800,38.19636083984375,0.17287486791610718,-0.48319441080093384,0.15393804013729095
1789156650626255600,38.276255615234376,-0.24617868661880493,0.021991148591041565,-0.04886921867728233
1789156650706211800,38.3562119140625,-0.6542366743087769,0.3127630054950714,-0.17043140530586243
1789156650786137300,38.436137451171874,-0.3677408695220947,0.02932153269648552,-0.2370157092809677
1789156650866093300,38.51609326171875,-0.40622538328170776,-0.2791654169559479,-0.08796459436416626
1789156650946018800,38.596018798828126,-0.2223549485206604,-0.0806342139840126,0.09224065393209457
1789156651025913900,38.675913818359376,-0.08552113175392151,0.006719517521560192,0.02076941914856434
1789156651105839400,38.75583935546875,0.3139847218990326,0.027488935738801956,0.2119702398777008
1789156651185765000,38.83576513671875,-0.06108652427792549,-0.17959438264369965,-0.48319441080093384
1789156651265660000,38.915659912109376,0.4709770977497101,-0.1569923609495163,0.19120082259178162
1789156651345646600,38.995646484375,0.22968533635139465,0.2168571650981903,0.08307767659425735
1789156651425541600,39.075541748046874,0.1722639948129654,0.11239920556545258,0.22663100063800812
1789156651505467100,39.155467041015626,0.1514945775270462,-0.44165557622909546,0.1569923609495163
1789156651665348900,39.315348876953124,-0.3481931984424591,-0.2871066629886627,-0.29504790902137756
1789156651745335300,39.395335205078126,-0.6120869517326355,0.1918116807937622,-0.4642575979232788
1789156651825260800,39.4752607421875,-0.2987131178379059,-0.16004669666290283,0.7275404930114746
1789156651905217000,39.555217041015624,-0.35246923565864563,0.12400564551353455,-0.4593706727027893
1789156651985081300,39.635081298828126,-0.19547687470912933,0.15821409225463867,0.07819075137376785
1789156652065098500,39.715098388671876,0.192422553896904,0.005497787147760391,-0.3323107063770294
1789156652144993500,39.79499365234375,0.43188172578811646,0.3439171314239502,0.17959438264369965
1789156652224949500,39.874949462890626,0.14294247329235077,-0.5082398653030396,-0.1722639948129654
1789156652304875000,39.954875,0.7061602473258972,-0.006108652334660292,0.24373523890972137
1789156652424778800,40.07477880859375,0.12522737681865692,-0.09651670604944229,-0.05925392732024193
1789156652544651800,40.19465185546875,0.028099801391363144,-0.24923302233219147,0.10445795953273773
1789156652624577300,40.274577392578124,-0.021991148591041565,-0.5461135506629944,0.05253441259264946
1789156652704533200,40.354533203125,-0.09834930300712585,-0.11911872029304504,0.5858197808265686
1789156652824437000,40.47443701171875,-0.37568211555480957,-0.12034045159816742,0.20830504596233368
1789156652904362500,40.554362548828124,-0.3536909818649292,0.0006108652451075613,-0.3378084897994995
1789156652984288000,40.6342880859375,-0.19120082259178162,0.05619960278272629,0.13377949595451355
1789156653064203000,40.714203125,0.022602014243602753,-0.24373523890972137,-0.021991148591041565
1789156653144128500,40.79412841796875,0.32070425152778625,-0.04398229718208313,0.10323622822761536
1789156653224054000,40.874053955078125,0.46181413531303406,0.4948008358478546,0.15577064454555511
1789156653343957500,40.99395751953125,0.3433062732219696,0.015882495790719986,0.033597588539123535
1789156653463769600,41.11376953125,0.25534167885780334,-0.00366519158706069,0.12400564551353455
1789156653543695000,41.193695068359375,0.31093040108680725,-0.41661009192466736,0.23151792585849762
1789156653623620600,41.27362060546875,-0.07452555745840073,0.03481931984424591,0.12217304855585098
1789156653703546000,41.353546142578125,-0.21502456068992615,0.12889257073402405,0.16859880089759827
1789156653783471600,41.4334716796875,-1.156978726387024,-0.1661553531885147,-1.0195341110229492
1789156653863336200,41.513336181640625,-0.1869247704744339,0.07330382615327835,0.07819075137376785
1789156653943200800,41.59320068359375,-0.10201449692249298,0.04214970022439957,0.12522737681865692
1789156654023095800,41.673095703125,-0.22907446324825287,-0.10506882518529892,0.45204028487205505
1789156654103021300,41.753021240234375,-0.16859880089759827,-0.2638937830924988,0.06108652427792549
1789156654182977300,41.832977294921875,0.1062905490398407,-0.10018189996480942,-0.05253441259264946
1789156654262933500,41.91293359375,-0.051312681287527084,-0.7727445363998413,-0.22846360504627228
1789156654342797800,41.9927978515625,0.43615779280662537,-0.04459316283464432,-0.10201449692249298
1789156654422723300,42.072723388671875,0.2076941877603531,0.20341812074184418,0.1966986060142517
1789156654502649000,42.15264916992187,0.048258353024721146,0.1014036312699318,0.22968533635139465
1789156654582544000,42.2325439453125,0.031154127791523933,-0.40256020426750183,0.10384709388017654
1789156654662408400,42.312408447265625,-0.09285151958465576,-0.23457226157188416,0.11301007121801376
1789156654742334000,42.392333984375,0.03848451003432274,0.18387043476104736,0.1722639948129654
1789156654822229000,42.47222900390625,-0.6664539575576782,-0.04153883829712868,-1.2394455671310425
1789156654902093600,42.552093505859375,-0.18325957655906677,-0.06719517707824707,0.23579397797584534
1789156654982019000,42.63201904296875,-0.019547687843441963,0.0555887371301651,0.13988813757896423
1789156655061975000,42.71197509765625,-0.07330382615327835,-0.16737708449363708,0.16310101747512817
1789156655141900800,42.79190087890625,-0.059864792972803116,-0.1319468915462494,0.10323622822761536
1789156655221795600,42.871795654296875,0.15943582355976105,0.24984388053417206,-0.03787364438176155
1789156655301751800,42.951751708984375,0.19303341209888458,-0.5345070958137512,-0.25595253705978394
1789156655381677300,43.03167724609375,0.5949827432632446,-0.20036379992961884,0.03237585723400116
1789156655461572400,43.111572265625,0.2681698501110077,0.304210901260376,0.13866640627384186
1789156655541497900,43.191497802734375,0.13866640627384186,0.23518311977386475,0.20402899384498596
1789156655621423400,43.27142333984375,0.03481931984424591,-0.37201693654060364,-0.0555887371301651
1789156655701288000,43.351287841796875,-0.0959058403968811,-0.30970868468284607,-0.07696902006864548
1789156655781244000,43.431243896484375,-0.36224308609962463,0.2070833146572113,-0.15027284622192383
1789156655861169400,43.51116943359375,-0.45142942667007446,0.31581732630729675,-0.7422012686729431
1789156655941095000,43.591094970703125,0.025045474991202354,-0.19914206862449646,0.4300491213798523
1789156656020990000,43.670989990234375,0.04214970022439957,0.23029619455337524,-0.025045474991202354
1789156656100946200,43.7509462890625,0.04703662544488907,-0.01771509274840355,0.21807889640331268
1789156656180871700,43.83087158203125,0.03787364438176155,-0.0555887371301651,-0.09468411654233932
1789156656260797200,43.910797119140625,0.43127086758613586,0.25534167885780334,0.1215621829032898
1789156656340722700,43.99072265625,-0.02321287989616394,-0.4990769028663635,-0.7153232097625732
1789156656420648200,44.070648193359375,0.940732479095459,-0.2070833146572113,0.3182607889175415
1789156656500543200,44.150543212890625,0.4697553813457489,0.313373863697052,0.18814650177955627
1789156656580438300,44.230438232421875,0.31520646810531616,-0.08491026610136032,0.05497787147760391
1789156656660394200,44.310394287109375,0.25473082065582275,-0.4178318381309509,0.05742133408784866
1789156656740319700,44.39031982421875,0.1062905490398407,-0.3530801236629486,0.13805554807186127
1789156656820276000,44.47027587890625,-0.10567969083786011,-0.06902777403593063,0.21380282938480377
1789156656940149000,44.59014892578125,0.09224065393209457,0.3219259977340698,0.28099802136421204
1789156657020044000,44.6700439453125,-0.14905111491680145,0.05925392732024193,-0.003054326167330146
1789156657099969500,44.749969482421875,0.009162978269159794,0.12461651116609573,0.1918116807937622
1789156657179864600,44.829864501953125,0.19608774781227112,-0.16798794269561768,-0.10812314599752426
1789156657259790000,44.9097900390625,0.513737678527832,-0.15271630883216858,-0.056810468435287476
1789156657339746000,44.98974609375,1.282817006111145,0.4288274049758911,0.19364428520202637
1789156657419641000,45.06964111328125,1.3329079151153564,0.8429940342903137,-0.33719760179519653
1789156657499536100,45.1495361328125,1.5289957523345947,-0.07757988572120667,0.16920967400074005
1789156657579492400,45.22949243164062,1.9504927396774292,0.33658674359321594,0.12400564551353455
1789156657659417900,45.30941796875,1.8209892511367798,0.4300491213798523,0.40194934606552124
1789156657739404300,45.389404296875,1.5448782444000244,0.2669481039047241,0.22296582162380219
1789156657819299300,45.46929931640625,0.9902125597000122,0.25534167885780334,-0.1270599663257599
1789156657899194400,45.5491943359375,0.7385360598564148,0.4862487316131592,-0.20830504596233368
1789156658019067400,45.6690673828125,1.0696250200271606,0.5693264007568359,0.15882496535778046
1789156658138943500,45.78894360351563,0.7898487448692322,0.1563815027475357,0.05864306539297104
1789156658218838500,45.86883862304688,0.6682865619659424,-0.016493361443281174,0.13316862285137177
1789156658338681000,45.98868115234375,0.6023131608963013,-0.06658431142568588,0.006108652334660292
1789156658418606600,46.06860668945313,0.5821545720100403,-0.00733038317412138,0.23151792585849762
1789156658498532000,46.14853198242187,0.7348709106445312,0.9633345007896423,-0.31459560990333557
1789156658578488000,46.22848803710937,0.6065891981124878,-0.11056660860776901,0.44104471802711487
1789156658658413800,46.30841381835938,0.7666358947753906,0.2119702398777008,0.2926044464111328
1789156658738339300,46.38833935546875,0.48747047781944275,0.04459316283464432,0.32986724376678467
1789156658818203600,46.46820361328125,0.4306600093841553,0.05742133408784866,0.24190263450145721
1789156658898098700,46.5480986328125,-0.07941248267889023,-0.005497787147760391,-0.14966198801994324
1789156658977993700,46.62799365234375,-0.8710938692092896,-0.12400564551353455,-0.808174729347229
1789156659057888800,46.707888671875,0.06658431142568588,0.13072516024112701,0.24373523890972137
1789156659137753300,46.78775341796875,-0.08674286305904388,0.29138273000717163,0.13500121235847473
1789156659217648400,46.8676484375,-0.29138273000717163,-0.003054326167330146,0.006719517521560192
1789156659297543400,46.94754345703125,-0.1966986060142517,-0.17409659922122955,-0.02626720629632473
1789156659417386000,47.06738598632813,0.2773328125476837,-0.10445795953273773,0.11178833991289139
1789156659497280800,47.14728076171875,0.3433062732219696,-0.02932153269648552,-0.3084869384765625
1789156659577206500,47.22720654296875,0.8625417351722717,0.2028072625398636,0.23151792585849762
1789156659657070800,47.30707080078125,0.45265114307403564,0.18631389737129211,-0.07452555745840073
1789156659736996400,47.38699633789062,0.3194825351238251,-0.18020524084568024,0.2785545587539673
1789156659816922000,47.46692211914063,0.2565633952617645,-0.3530801236629486,0.20891591906547546
1789156659896817000,47.54681689453125,0.04459316283464432,-0.17348572611808777,0.37751471996307373
1789156659976712000,47.6267119140625,-0.3219259977340698,0.001832595793530345,-0.17409659922122955
1789156660056607000,47.70660693359375,-0.8185594081878662,0.1875356286764145,-0.45265114307403564
1789156660136532500,47.78653247070312,-0.4001167416572571,-0.09224065393209457,-0.06230825558304787
1789156660216427500,47.86642749023437,-0.07147123664617538,0.22052235901355743,0.23151792585849762
1789156660296414200,47.94641430664063,-0.1661553531885147,-0.10445795953273773,0.2932153046131134
1789156660376370200,48.0263701171875,-0.1014036312699318,0.10018189996480942,0.05925392732024193
1789156660456265200,48.10626513671875,0.08185594528913498,0.24617868661880493,0.09285151958465576
1789156660536190700,48.18619067382812,0.11545353382825851,-0.4948008358478546,-0.5668829679489136
1789156660616085800,48.26608569335937,0.5125159621238708,0.11972958594560623,0.1875356286764145
1789156660695889400,48.34588940429688,0.42210787534713745,0.0024434609804302454,-0.0959058403968811
1789156660775784200,48.4257841796875,0.22663100063800812,-0.16554448008537292,0.27061331272125244
1789156660855740400,48.50574047851563,0.05375614017248154,-0.4856378734111786,-0.0006108652451075613
1789156660935696400,48.5856962890625,-0.20952677726745605,-0.2321287989616394,-0.2370157092809677
1789156661015561000,48.66556103515625,-0.4349360466003418,-0.44287729263305664,-0.2590068578720093
1789156661095456000,48.7454560546875,-0.979216992855072,0.7324274182319641,-1.074512004852295
1789156661175412000,48.82541186523437,-0.22907446324825287,-0.251676470041275,-0.3023782968521118
1789156661255368000,48.90536791992187,0.06780604273080826,0.1007927656173706,0.13744467496871948
1789156661335293700,48.98529370117188,0.03420845419168472,0.04214970022439957,0.21135938167572021
1789156661415249700,49.06524975585938,0.3084869384765625,0.006108652334660292,0.47219884395599365
1789156661495175200,49.14517504882812,0.4893030524253845,0.3549126982688904,0.6615670323371887
1789156661575131100,49.22513110351562,-0.09773843735456467,-0.6414085030555725,-0.3597996234893799
1789156661655026200,49.30502612304687,0.5943718552589417,-0.3378084897994995,0.6298020482063293
1789156661734982400,49.384982421875,0.05803219974040985,0.26022860407829285,-0.24068090319633484
1789156661814877400,49.46487744140625,0.0757472887635231,0.1814269721508026,0.3176499307155609
1789156661934689300,49.58468920898437,-0.01466076634824276,-0.22846360504627228,0.4502076804637909
1789156662054623500,49.70462353515625,-0.4306600093841553,-0.42088615894317627,-0.06658431142568588
1789156662134549000,49.78454907226563,-0.3182607889175415,0.3378084897994995,-0.5552765130996704
1789156662214444000,49.86444409179688,-0.413555771112442,-0.054367005825042725,-0.19792033731937408
1789156662294339000,49.94433911132813,-0.29077184200286865,-0.05497787147760391,0.05314527451992035
1789156662374264600,50.0242646484375,-0.22113321721553802,-0.17470745742321014,0.08368854224681854
1789156662454190000,50.10419018554688,-0.10384709388017654,-0.1466076523065567,-0.0354301854968071
1789156662534115600,50.18411547851562,0.4905247986316681,0.5852088928222656,0.3628539443016052
1789156662613949700,50.26394970703125,0.010995574295520782,0.38179078698158264,-0.6328563690185547
1789156662693905700,50.34390576171875,0.3781255781650543,-0.46364670991897583,0.21930062770843506
1789156662773800700,50.42380078125,0.43249258399009705,-0.09468411654233932,0.1508837193250656
1789156662853695700,50.50369580078125,0.35124751925468445,-0.08429940044879913,0.3078760802745819
1789156662933682200,50.58368212890625,0.03176499158143997,-0.02321287989616394,0.21624629199504852
1789156663013577200,50.6635771484375,-0.14416420459747314,-0.09346238523721695,-0.24556782841682434
1789156663093472300,50.74347216796875,-0.7348709106445312,0.06536258012056351,-0.759916365146637
1789156663173392000,50.82339184570313,-0.04581489413976669,-0.10018189996480942,0.10812314599752426
1789156663253347800,50.90334790039063,0.15515977144241333,0.24373523890972137,0.02015855349600315
1789156663333304000,50.98330395507813,0.028099801391363144,0.06658431142568588,0.2785545587539673
1789156663413260000,51.06326000976563,-0.09162978827953339,0.06108652427792549,-0.20830504596233368
1789156663533133000,51.18313305664063,0.5222898125648499,0.5473352670669556,0.13866640627384186
1789156663613028000,51.26302807617188,-0.06291911751031876,0.4337143301963806,-0.6646214127540588
1789156663692923100,51.34292309570313,0.5363397002220154,-0.6627888083457947,0.5387831330299377
1789156663772848600,51.4228486328125,0.2272418737411499,-0.04886921867728233,-0.1618792861700058
1789156663852743700,51.50274365234375,0.22296582162380219,-0.15332718193531036,0.4178318381309509
1789156663972678000,51.622677978515625,-0.2474004179239273,-0.48747047781944275,0.19058994948863983
1789156664052603400,51.70260327148438,-0.251676470041275,0.08552113175392151,0.12522737681865692
1789156664132651000,51.782651123046875,-0.59803706407547,0.15332718193531036,-0.30970868468284607
1789156664212546000,51.862546142578125,-0.42638394236564636,-0.051312681287527084,-0.18997909128665924
1789156664332449500,51.98244946289063,-0.14477506279945374,-0.22479841113090515,0.045204028487205505
1789156664452353000,52.10235302734375,0.11056660860776901,-0.09162978827953339,0.10751228034496307
1789156664532309200,52.182309326171875,0.5051855444908142,0.2993239760398865,0.45204028487205505
1789156664612204300,52.262204345703125,0.022602014243602753,0.06658431142568588,-0.6579018831253052
1789156664692099000,52.34209912109375,0.48258355259895325,-0.5143485069274902,0.32498031854629517
1789156664771994000,52.421994140625,0.18509216606616974,0.13927727937698364,-0.21074850857257843
1789156664851950300,52.501950439453125,0.2938261926174164,0.056810468435287476,0.5919284224510193
1789156664931814700,52.58181469726563,0.20830504596233368,-0.26450464129447937,0.19608774781227112
1789156665011740400,52.661740478515625,-0.1722639948129654,-0.20830504596233368,0.11239920556545258
1789156665091604700,52.74160473632813,-0.6860016584396362,-0.23151792585849762,-0.27000242471694946
1789156665171499800,52.82149975585938,-0.4147774875164032,0.2889392673969269,-0.30970868468284607
1789156665251486500,52.901486572265625,-0.33292156457901,0.12461651116609573,-0.015271631069481373
1789156665331412000,52.98141186523438,-0.19058994948863983,-0.1062905490398407,0.03420845419168472
1789156665411337500,53.06133740234375,-0.06414084881544113,-0.26572638750076294,0.05803219974040985
1789156665531302100,53.18130224609375,0.3274237811565399,-0.1014036312699318,0.1667662113904953
1789156665611258000,53.26125805664063,-0.09834930300712585,-0.24556782841682434,-0.3170390725135803
1789156665691153200,53.34115307617188,0.5363397002220154,-0.33597588539123535,0.24068090319633484
1789156665771078700,53.42107861328125,0.2816088795661926,0.3988949954509735,-0.005497787147760391
1789156665851004200,53.50100415039063,0.29138273000717163,-0.036651913076639175,0.3017674386501312
1789156665930960400,53.58096044921875,0.14049901068210602,-0.2370157092809677,0.04703662544488907
1789156666010886000,53.660885986328125,-0.1869247704744339,0.0354301854968071,-0.04948008432984352
1789156666130819800,53.78081982421875,-0.9944885969161987,0.15882496535778046,-0.8961393237113953
1789156666210745300,53.86074536132813,-0.17837265133857727,0.006108652334660292,0.0959058403968811
1789156666290732000,53.94073193359375,-0.10018189996480942,0.12095131725072861,-0.242513507604599
1789156666370627000,54.020626953125,0.0403171069920063,0.0910189226269722,0.2993239760398865
1789156666450552600,54.10055249023438,0.1160643994808197,0.0708603709936142,-0.051312681287527084
1789156666530478000,54.18047802734375,0.34513887763023376,0.00855211354792118,0.05192354694008827
1789156666610403600,54.26040356445313,0.17348572611808777,-0.6921103000640869,-0.44287729263305664
1789156666690329000,54.3403291015625,0.685390830039978,0.44104471802711487,-0.08979719132184982
1789156666770315800,54.42031567382813,0.10445795953273773,0.19608774781227112,0.23151792585849762
1789156666850271700,54.50027172851563,0.13500121235847473,-0.05803219974040985,0.009773843921720982
1789156666930197200,54.580197265625,0.10445795953273773,-0.4184426963329315,0.10323622822761536
1789156667010092300,54.66009228515625,0.12400564551353455,-0.34758231043815613,0.1918116807937622
1789156667090048500,54.740048583984375,0.07696902006864548,-0.25106561183929443,0.01466076634824276
1789156667170035000,54.82003491210938,-0.9077457785606384,0.09834930300712585,-1.186300277709961
1789156667249991000,54.89999096679688,-0.0861319974064827,-0.10506882518529892,0.3695734739303589
1789156667329947100,54.97994702148438,-0.08429940044879913,0.05314527451992035,-0.1215621829032898
1789156667409903000,55.05990307617188,-0.1313360333442688,-0.06414084881544113,0.3188716471195221
1789156667489798100,55.13979809570313,0.054367005825042725,-0.03787364438176155,0.15821409225463867
1789156667569693200,55.21969311523438,0.40133845806121826,0.6872233748435974,0.3237585723400116
1789156667689627100,55.33962719726563,0.43188172578811646,0.7422012686729431,-0.24617868661880493
1789156667809561300,55.45956127929688,0.15943582355976105,0.24495697021484375,-0.20525072515010834
1789156667889486800,55.53948681640625,0.26083946228027344,0.12034045159816742,0.394008070230484
1789156667969382000,55.6193818359375,0.27122417092323303,-0.152105450630188,0.16859880089759827
1789156668049337900,55.699337890625,0.02076941914856434,-0.09712757170200348,-0.2272418737411499
1789156668129263600,55.779263671875,-0.5601634383201599,-0.42699480056762695,-0.1466076523065567
1789156668209232600,55.85923266601562,-0.740368664264679,0.675006091594696,-0.5919284224510193
1789156668289219300,55.93921923828125,-0.1111774742603302,-0.029932396486401558,0.2583959996700287
1789156668369175300,56.01917529296875,0.12339477986097336,-0.34208452701568604,0.3878994286060333
1789156668449131300,56.09913134765625,-0.08796459436416626,-0.2174680233001709,0.018936822190880775
1789156668529057000,56.17905712890625,0.05314527451992035,-0.04092797264456749,0.028099801391363144
1789156668608982500,56.258982421875,0.684779942035675,0.6243042945861816,0.5442809462547302
1789156668688969000,56.33896899414062,0.0659734457731247,-0.20586158335208893,-0.6536257863044739
1789156668768864000,56.41886401367187,0.7348709106445312,-0.33597588539123535,0.12339477986097336
1789156668848789500,56.49878955078125,0.5632177591323853,0.30604347586631775,0.20830504596233368
1789156668928745700,56.578745849609376,0.2926044464111328,0.11545353382825851,0.33658674359321594
1789156669008640800,56.658640869140626,-0.09529497474431992,-0.3023782968521118,-0.03176499158143997
1789156669088566300,56.73856616210937,0.1569923609495163,-0.26083946228027344,0.2217440903186798
1789156669168522200,56.81852221679687,-0.44715335965156555,-0.32070425152778625,-0.45692721009254456
1789156669248509000,56.898509033203126,-0.5583308339118958,0.22052235901355743,-0.3597996234893799
1789156669328495400,56.97849536132812,-0.10384709388017654,-0.2541199326515198,0.14844025671482086
1789156669408420900,57.0584208984375,-0.2785545587539673,0.03176499158143997,0.25534167885780334
1789156669488377000,57.138377197265626,-0.4954117238521576,0.1270599663257599,-0.15515977144241333
1789156669568302600,57.21830249023437,-0.2070833146572113,0.10445795953273773,-0.09529497474431992
1789156669688236500,57.33823657226562,0.3891211748123169,-0.033597588539123535,0.1472185254096985
1789156669768192800,57.41819287109375,0.4337143301963806,0.6426302194595337,-0.13011430203914642
1789156669848148700,57.49814868164062,0.5271766781806946,-0.16065755486488342,0.15821409225463867
1789156669928104700,57.57810473632812,0.2376265823841095,0.015271631069481373,-0.182648703455925
1789156670008030200,57.6580302734375,0.17776179313659668,-0.4282165467739105,0.7586946487426758
1789156670087925200,57.73792529296875,-0.03481931984424591,-0.08368854224681854,-0.06169738993048668
1789156670167850800,57.81785083007812,-0.1612684279680252,-0.0006108652451075613,-0.039706241339445114
1789156670247745800,57.89774584960937,-0.6786713004112244,-0.4801400899887085,-0.5687155723571777
1789156670327671300,57.97767138671875,-0.1215621829032898,0.2871066629886627,-0.04948008432984352
1789156670407658000,58.05765795898437,-0.39095374941825867,0.3090978264808655,0.021991148591041565
1789156670487583500,58.13758349609375,-0.05375614017248154,0.007941247895359993,0.10873401165008545
1789156670567509000,58.21750903320312,0.006108652334660292,-0.4251621961593628,0.09224065393209457
1789156670647465200,58.29746533203125,0.1368338167667389,0,-0.02382374368607998
1789156670767368700,58.41736865234375,-0.0757472887635231,-0.5222898125648499,-0.950506329536438
1789156670847294200,58.49729418945312,0.9230173826217651,-0.056810468435287476,0.17043140530586243
1789156670927158800,58.57715869140625,0.46853363513946533,0.19547687470912933,-0.04642575979232788
1789156671007084300,58.65708422851562,0.21502456068992615,0.036651913076639175,0.19364428520202637
1789156671126987800,58.77698779296875,0.23579397797584534,-0.14844025671482086,0.26145032048225403
1789156671206852400,58.85685229492187,-0.16493362188339233,0.22052235901355743,-0.1514945775270462
1789156671286808300,58.93680834960937,-0.7623597979545593,-0.007941247895359993,-0.4306600093841553
1789156671366764500,59.0167646484375,-0.3787364661693573,0.06108652427792549,0.13439035415649414
1789156671446659600,59.09665966796875,-0.45631635189056396,0.05314527451992035,-0.24862214922904968
1789156671526585000,59.176585205078126,-0.23273965716362,-0.2932153046131134,0.09834930300712585
1789156671646488600,59.29648852539062,0.007941247895359993,-0.24495697021484375,-0.025045474991202354
1789156671766361600,59.41636157226562,0.4282165467739105,-0.17470745742321014,0.2590068578720093
1789156671846256600,59.49625659179687,0.0757472887635231,0.6444628238677979,-0.3536909818649292
1789156671926182100,59.57618212890625,0.38606682419776917,-0.11667526513338089,0.1875356286764145
1789156672006077200,59.6560771484375,0.23518311977386475,-0.09773843735456467,-0.08552113175392151
1789156672085972200,59.73597216796875,0.18020524084568024,-0.19058994948863983,0.05925392732024193
1789156672165867300,59.8158671875,0.045204028487205505,0.26633724570274353,0.02871066704392433
1789156672245853700,59.89585375976562,-0.14049901068210602,-0.36224308609962463,-0.42760565876960754
1789156672325810000,59.97580981445312,-0.5442809462547302,0.03176499158143997,-0.14416420459747314
1789156672405735400,60.0557353515625,-0.4550946056842804,-0.13011430203914642,-0.1215621829032898
1789156672485661000,60.13566088867187,-0.13927727937698364,0.09957103431224823,-0.03726277872920036
1789156672565556000,60.21555590820312,0.26450464129447937,0.13072516024112701,0.2278527319431305
1789156672645451000,60.29545092773437,0.503963828086853,0.024434609338641167,0.20097467303276062
1789156672725315600,60.375315673828126,0.4050036668777466,0.22602014243602753,0.3481931984424591
1789156672805180000,60.45517993164062,0.056810468435287476,-0.27000242471694946,-0.12828169763088226
1789156672885105400,60.53510546875,0.4758640229701996,0.14477506279945374,-0.3170390725135803
1789156672965000400,60.61500048828125,0.8521569967269897,0.0910189226269722,0.30054569244384766
1789156673044956700,60.694956787109376,0.8362745046615601,0.27122417092323303,-0.28099802136421204
1789156673124851700,60.774851806640626,0.13316862285137177,0.03298672288656235,-0.022602014243602753
1789156673204761300,60.85476123046875,-0.7812966704368591,-0.3323107063770294,-0.44287729263305664
1789156673284626000,60.9346259765625,-0.9822713136672974,-0.012828170321881771,-0.04153883829712868
1789156673364551400,61.014551513671876,-0.7959573864936829,0.23640485107898712,-0.17104226350784302
1789156673444446500,61.094446533203126,-0.49235737323760986,-0.12767083942890167,0.12828169763088226
1789156673524433000,61.17443286132813,-0.08124507963657379,-0.09407325088977814,0.49296826124191284
1789156673604328000,61.25432788085938,-0.22602014243602753,0.0555887371301651,0.43676865100860596
1789156673684223000,61.33422290039063,0.10506882518529892,0.07513642311096191,0.0555887371301651
1789156673764148500,61.4141484375,0.3286454975605011,-0.3579670190811157,0.3396410644054413
1789156673844104400,61.4941044921875,-0.6126978397369385,0.03848451003432274,-0.7147123217582703
1789156673924030200,61.5740302734375,0.2871066629886627,-0.2724458873271942,0.3488040566444397
1789156674003925200,61.65392529296875,0.35246923565864563,0.09346238523721695,-0.33047810196876526
1789156674083820000,61.73382006835938,0.17348572611808777,0.04764748737215996,0.42210787534713745
1789156674163745800,61.813745849609376,-0.010995574295520782,-0.16004669666290283,0.14477506279945374
1789156674243640800,61.893640869140626,-0.23518311977386475,-0.10873401165008545,-0.14782938361167908
1789156674323566300,61.97356640625,-0.6139195561408997,-0.2889392673969269,-0.15577064454555511
1789156674403430700,62.0534306640625,-0.5149593949317932,0.1368338167667389,0.04642575979232788
1789156674483387000,62.133386962890626,-0.7849618196487427,-0.019547687843441963,-0.09346238523721695
1789156674603229400,62.2532294921875,-0.2919935882091522,0.29504790902137756,0.3836233615875244
1789156674683155000,62.333155029296876,0.46731191873550415,-0.12950342893600464,0.15760323405265808
1789156674763050000,62.413050048828126,0.47219884395599365,0.025045474991202354,0.007941247895359993
1789156674842945000,62.492945068359376,0.4911356568336487,-0.34513887763023376,0.02015855349600315
1789156674922870500,62.57287060546875,0.5821545720100403,0.37629300355911255,-0.09834930300712585
1789156675002765600,62.652765625,0.5644394755363464,0.07208210229873657,0.10751228034496307
1789156675082691000,62.732691162109376,0.3982841372489929,0.09896016865968704,0.22540926933288574
1789156675162586000,62.812586181640626,0.294437050819397,-0.11423180252313614,0.34697145223617554
1789156675242481200,62.892481201171876,0.003054326167330146,-0.26450464129447937,0.2938261926174164
1789156675322406700,62.97240673828125,-0.04153883829712868,0.12889257073402405,0.2272418737411499
1789156675402271000,63.05227099609375,-0.5564982295036316,0.18020524084568024,-0.8436049222946167
1789156675482227200,63.132227294921876,-0.2779437005519867,-0.20830504596233368,0.10690141469240189
1789156675562152700,63.21215258789063,-0.19120082259178162,0.07880161702632904,-0.10018189996480942
1789156675642078200,63.292078125,-0.3017674386501312,-0.13439035415649414,0.18814650177955627
1789156675722003700,63.37200366210938,-0.15393804013729095,0.09224065393209457,0.17959438264369965
1789156675801959700,63.45195971679688,0.20891591906547546,-0.015882495790719986,0.18020524084568024
1789156675881854700,63.53185473632813,0.15760323405265808,-0.5210680365562439,0.0659734457731247
1789156675961841400,63.61184130859375,0.44287729263305664,0.44165557622909546,-0.05925392732024193
1789156676041736400,63.691736328125,0.32986724376678467,0.23029619455337524,-0.2070833146572113
1789156676121723000,63.77172290039063,0.3530801236629486,-0.1160643994808197,0.10812314599752426
1789156676201618000,63.85161791992188,0.36529740691185,-0.2974913716316223,0.21502456068992615
1789156676281543400,63.93154345703125,0.12217304855585098,-0.1215621829032898,0.2577851414680481
1789156676361438500,64.0114384765625,-0.03298672288656235,0.22663100063800812,0.05742133408784866
1789156676441333500,64.09133349609375,-0.646295428276062,0.25961771607398987,-0.7305948138237
1789156676521228500,64.171228515625,-0.1411098688840866,-0.13439035415649414,0.3445279896259308
1789156676601093000,64.25109301757813,-0.6298020482063293,-0.17837265133857727,0.00366519158706069
1789156676681018600,64.3310185546875,-0.3891211748123169,-0.14233160018920898,0.2987131178379059
1789156676760913700,64.41091357421875,-0.12339477986097336,0.11301007121801376,0.03787364438176155
1789156676840778200,64.4907783203125,0.2535090744495392,-0.027488935738801956,0.1014036312699318
1789156676920673300,64.57067333984375,0.10506882518529892,-0.7305948138237,-0.384845107793808
1789156677000598800,64.65059887695313,0.759305477142334,0.38117989897727966,-0.08796459436416626
1789156677080524300,64.73052416992188,0.42271876335144043,0.1466076523065567,0.11789698898792267
1789156677160480300,64.81048022460938,0.41661009192466736,0.01160643994808197,0.23579397797584534
1789156677240375300,64.89037524414063,0.31154128909111023,-0.38667771220207214,0.21563543379306793
1789156677320300800,64.97030078125,0.06475171446800232,-0.27061331272125244,0.34697145223617554
1789156677400165400,65.05016528320313,0.025045474991202354,0.25595253705978394,0.4343251883983612
1789156677480060400,65.13006030273438,-0.8912523984909058,0.5112941861152649,-1.1649199724197388
1789156677560016400,65.21001635742188,-0.13072516024112701,-0.042760565876960754,0.2919935882091522
1789156677639942000,65.28994189453125,-0.18631389737129211,0.05192354694008827,-0.08368854224681854
1789156677719867400,65.36986743164063,-0.25106561183929443,-0.08246681094169617,0.34086281061172485
1789156677799793200,65.44979321289063,-0.14416420459747314,-0.07024950534105301,-0.09224065393209457
1789156677879688200,65.52968823242188,0.3188716471195221,0.10751228034496307,0.05925392732024193
1789156677959674600,65.60967456054688,0.07941248267889023,-0.607200026512146,-0.3830125033855438
1789156678039508700,65.6895087890625,0.394008070230484,-0.022602014243602753,0.00855211354792118
1789156678119434200,65.76943432617188,0.1667662113904953,0.1472185254096985,-0.15760323405265808
1789156678199390200,65.84939013671875,0.1411098688840866,-0.001832595793530345,0.24556782841682434
1789156678279265300,65.92926538085938,0.007941247895359993,-0.24129177629947662,0.15027284622192383
1789156678359160300,66.00916040039063,-0.17592918872833252,-0.26633724570274353,0.07696902006864548
1789156678439055400,66.08905541992188,-0.21013765037059784,-0.02871066704392433,-0.10262536257505417
1789156678519011300,66.16901123046875,-0.3878994286060333,0.18325957655906677,-0.6151412725448608
1789156678598936800,66.24893676757813,-0.17776179313659668,-0.10018189996480942,0.3488040566444397
1789156678678862300,66.3288623046875,-0.32986724376678467,-0.04703662544488907,-0.02076941914856434
1789156678758788000,66.4087880859375,-0.23151792585849762,0.024434609338641167,0.32681289315223694
1789156678838744000,66.488744140625,-0.3237585723400116,-0.01038470957428217,0.38667771220207214
1789156678918700000,66.56869995117188,-0.1661553531885147,0.33108896017074585,0.039095375686883926
1789156678998595000,66.64859497070313,0.394008070230484,-0.4098905920982361,-0.5955936312675476
1789156679078490000,66.72848999023438,0.8197811841964722,0.3549126982688904,-0.3194825351238251
1789156679158354700,66.80835473632813,0.5968153476715088,-0.13561208546161652,-0.021991148591041565
1789156679238249700,66.88824975585938,0.40133845806121826,0.00427605677396059,0.19364428520202637
1789156679318175200,66.96817529296875,0.34147366881370544,-0.24434609711170197,0.12278391420841217
1789156679398131200,67.04813110351563,0.08979719132184982,-0.3433062732219696,0.09040805697441101
1789156679478056700,67.128056640625,0.048258353024721146,0.02076941914856434,0.3927863538265228
1789156679558043400,67.20804345703125,-0.608421802520752,-0.20036379992961884,-1.218676209449768
1789156679637969000,67.28796899414063,-0.1362229436635971,0.06352998316287994,0.14355333149433136
1789156679717864000,67.36786401367188,-0.25534167885780334,0.18631389737129211,0.033597588539123535
1789156679797789400,67.44778955078125,-0.2431243658065796,0.07330382615327835,0.2981022298336029
1789156679877745400,67.52774536132813,-0.0959058403968811,-0.22052235901355743,0.08368854224681854
1789156679957640400,67.60764038085938,0.006719517521560192,-0.03787364438176155,-0.1472185254096985
1789156680037596700,67.6875966796875,0.2583959996700287,-0.10323622822761536,-0.019547687843441963
1789156680117552600,67.767552734375,0.5204572081565857,0.5326744914054871,-0.09712757170200348
1789156680197417200,67.84741723632813,0.18509216606616974,0.02015855349600315,-0.44287729263305664
1789156680277342700,67.9273427734375,0.3677408695220947,-0.2779437005519867,0.3585779070854187
1789156680357268200,68.00726831054688,0.29993483424186707,-0.22296582162380219,0.08918632566928864
1789156680437224200,68.08722412109375,-0.06536258012056351,-0.21319197118282318,0.34208452701568604
1789156680517149700,68.16714965820313,0.2015855312347412,0.16432274878025055,0.16432274878025055
1789156680597106000,68.24710595703125,-0.6933320760726929,-0.23457226157188416,-0.7006624341011047
1789156680677001000,68.3270009765625,-0.11056660860776901,0.05192354694008827,0.39645153284072876
1789156680756957000,68.40695703125,-0.21441370248794556,-0.013439035043120384,-0.17898350954055786
1789156680836852000,68.48685205078125,-0.33597588539123535,0.12461651116609573,0.3341432809829712
1789156680916747000,68.5667470703125,-0.17592918872833252,-0.19486601650714874,0.3836233615875244
1789156680996703000,68.64670288085938,0.1215621829032898,-0.1514945775270462,0.23945917189121246
1789156681076598000,68.72659790039063,0.033597588539123535,-0.2223549485206604,-0.015271631069481373
1789156681156584700,68.80658471679688,0.152105450630188,0.7330383062362671,-0.4807509481906891
1789156681236540700,68.88654077148438,0.07696902006864548,-0.22846360504627228,0.13316862285137177
1789156681316435700,68.96643579101563,0.2217440903186798,-0.14355333149433136,-0.028099801391363144
1789156681396330800,69.04633081054688,0.2987131178379059,-0.14416420459747314,0.16493362188339233
1789156681476256300,69.12625634765625,-0.005497787147760391,-0.19486601650714874,0.2535090744495392
1789156681556151300,69.2061513671875,0.06352998316287994,0.42210787534713745,0.05375614017248154
1789156681636107300,69.28610717773438,-0.6536257863044739,-0.19608774781227112,-0.5717698931694031
1789156681716032800,69.36603271484375,-0.2070833146572113,-0.18325957655906677,0.10323622822761536
1789156681795958300,69.44595825195313,-0.2828305959701538,-0.08491026610136032,-0.13072516024112701
1789156681875822800,69.52582275390625,-0.31520646810531616,-0.09040805697441101,0.2840523421764374
1789156681955748400,69.60574829101563,-0.2174680233001709,-0.4190535545349121,0.16065755486488342
1789156682035673900,69.685673828125,-0.10873401165008545,0.13561208546161652,0.003054326167330146
1789156682115630000,69.76563012695313,0.01466076634824276,-0.2968805134296417,-0.1716531366109848
1789156682195555600,69.8455556640625,0.5448917746543884,0.07757988572120667,0.08124507963657379
1789156682275389400,69.92538940429688,0.3695734739303589,0.21441370248794556,-0.152105450630188
1789156682355315200,70.00531518554688,0.4031710624694824,-0.27488934993743896,0.14355333149433136
1789156682435271200,70.08527124023438,0.3781255781650543,-0.08002334833145142,0.37262779474258423
1789156682515196700,70.16519677734375,0.21563543379306793,-0.35124751925468445,0.22540926933288574
1789156682595091700,70.245091796875,-0.1215621829032898,0.10751228034496307,-0.06230825558304787
1789156682675047700,70.32504760742188,-0.7086036801338196,0.1258382350206375,-0.7202101349830627
1789156682754973200,70.40497314453125,-0.1722639948129654,-0.08491026610136032,-0.485027015209198
1789156682834899000,70.48489892578125,-0.11056660860776901,-0.0910189226269722,-0.05864306539297104
1789156682914793700,70.56479370117188,-0.28038713335990906,0.014049900695681572,0.05742133408784866
1789156682994719500,70.64471948242188,-0.10445795953273773,0.11178833991289139,0.04092797264456749
1789156683074614300,70.7246142578125,0.4966334402561188,0.02626720629632473,0.2021963894367218
1789156683154509300,70.80450927734375,0.4807509481906891,0.021380282938480377,0.23335053026676178
1789156683234465500,70.88446557617188,0.3237585723400116,0.6609562039375305,-0.19058994948863983
1789156683314376200,70.96437622070313,0.2028072625398636,-0.2382374405860901,0.031154127791523933
1789156683394271200,71.04427124023438,0.2015855312347412,-0.019547687843441963,0.0354301854968071
1789156683474227200,71.12422729492188,0.11239920556545258,-0.11972958594560623,0.2021963894367218
1789156683554152700,71.20415258789062,-0.006108652334660292,-0.15760323405265808,0.30115658044815063
1789156683634109000,71.28410888671876,0.02076941914856434,-0.05009094998240471,0.22968533635139465
1789156683714004000,71.36400390625,-0.5400048494338989,-0.5473352670669556,-0.33597588539123535
1789156683793868300,71.44386840820313,-0.22846360504627228,0.013439035043120384,-0.3536909818649292
1789156683873793800,71.52379370117187,-0.3854559659957886,0.060475658625364304,-0.14538592100143433
1789156683993667000,71.6436669921875,-0.25473082065582275,0.012217304669320583,0.10934487730264664
1789156684073623000,71.723623046875,0.03298672288656235,0.04581489413976669,0.08796459436416626
1789156684153579000,71.8035791015625,0.3842342495918274,0.015882495790719986,0.3066543638706207
1789156684233535200,71.88353515625,0.05803219974040985,-0.47342056035995483,-0.7379252314567566
1789156684313430300,71.96343017578126,0.5436700582504272,0.18387043476104736,0.2382374405860901
1789156684393325000,72.04332495117187,0.3090978264808655,0.22113321721553802,-0.07391469180583954
1789156684473250800,72.12325073242188,0.23579397797584534,0.1661553531885147,0.19364428520202637
1789156684553206800,72.20320678710938,0.16004669666290283,-0.5015203952789307,0.09407325088977814
1789156684633132300,72.28313232421876,0.09773843735456467,-0.41111230850219727,0.06352998316287994
1789156684713027300,72.36302734375,-0.059864792972803116,0.04703662544488907,-0.1612684279680252
1789156684792922400,72.44292236328126,-0.33047810196876526,-0.17531833052635193,-0.7623597979545593
1789156684872817400,72.5228173828125,-0.014049900695681572,-0.06536258012056351,0.3084869384765625
1789156684952682000,72.60268188476563,-0.24862214922904968,0.29993483424186707,-0.0708603709936142
1789156685032607500,72.682607421875,-0.17470745742321014,-0.08307767659425735,0.15393804013729095
1789156685112563500,72.7625634765625,-0.12217304855585098,-0.11911872029304504,-0.025045474991202354
1789156685192489000,72.84248901367188,0.294437050819397,0.21563543379306793,0.07024950534105301
1789156685272445000,72.92244482421874,0.2174680233001709,-0.5369505286216736,-0.5638286471366882
1789156685392287500,73.04228759765626,0.29565876722335815,-0.25595253705978394,0.2816088795661926
1789156685512191200,73.16219116210938,0.20341812074184418,-0.01160643994808197,0.35735616087913513
1789156685592147200,73.24214721679688,0.2687807083129883,-0.44104471802711487,0.24678955972194672
1789156685672072700,73.32207275390626,0.02687807008624077,-0.025045474991202354,-0.06230825558304787
1789156685752028700,73.40202856445312,-0.2718350291252136,0.24923302233219147,0.12828169763088226
1789156685831923700,73.481923828125,-0.5931501388549805,0.3274237811565399,-0.9944885969161987
1789156685911880000,73.5618798828125,0.4740314185619354,-0.29138273000717163,1.0433578491210938
1789156685991866400,73.64186645507813,-0.43799036741256714,0.04459316283464432,-0.5192354321479797
1789156686071761400,73.72176147460938,-0.3543018400669098,-0.0403171069920063,0.3897320330142975
1789156686151687000,73.80168701171876,-0.06414084881544113,-0.04459316283464432,-0.08552113175392151
1789156686231582000,73.88158203125,0.17898350954055786,0.13011430203914642,-0.02626720629632473
1789156686311507500,73.96150756835938,0.0403171069920063,-0.6420193910598755,-0.8955284357070923
1789156686391402500,74.04140258789063,0.7110471725463867,0.5687155723571777,0.021380282938480377
1789156686471358700,74.12135864257813,0.2816088795661926,0.060475658625364304,0.4105014503002167
1789156686551253800,74.20125366210938,0.28527405858039856,-0.06963863968849182,0.2021963894367218
1789156686671157200,74.3211572265625,0.21868975460529327,-0.3066543638706207,0.2919935882091522
1789156686751052300,74.40105224609376,0.08857546001672745,-0.1459967941045761,-0.06169738993048668
1789156686830947300,74.480947265625,-0.6701191663742065,-0.34208452701568604,-0.16859880089759827
1789156686910872800,74.56087280273438,-0.5974262356758118,0.31093040108680725,-0.5222898125648499
1789156686990859300,74.640859375,-0.44654250144958496,-0.10018189996480942,-0.07880161702632904
1789156687070754300,74.72075439453126,-0.3243694305419922,0.07452555745840073,0.1062905490398407
1789156687150619000,74.80061889648438,-0.3799581825733185,0.003054326167330146,-0.03726277872920036
1789156687230514000,74.88051391601563,-0.009773843921720982,-0.1014036312699318,-0.11056660860776901
1789156687310470000,74.96046997070313,0.5607742667198181,0.3640756905078888,0.2883284091949463
1789156687390304000,75.04030395507813,-0.1612684279680252,-0.1258382350206375,-0.7305948138237
1789156687470199000,75.12019897460938,0.7476990818977356,-0.5186246037483215,0.5076290369033813
1789156687550094000,75.20009399414063,0.16371189057826996,0.2669481039047241,-0.15882496535778046
1789156687630050000,75.28005004882813,0.31154128909111023,0.1918116807937622,0.3579670190811157
1789156687709975600,75.3599755859375,0.1918116807937622,-0.31520646810531616,0.11667526513338089
1789156687789901000,75.43990112304688,0.11239920556545258,-0.4899139404296875,0.15271630883216858
1789156687869796000,75.51979614257813,-0.3433062732219696,-0.2535090744495392,-0.23029619455337524
1789156687989730300,75.63973022460938,-0.2981022298336029,0.013439035043120384,0.02687807008624077
1789156688069655800,75.71965576171876,-0.16249015927314758,-0.013439035043120384,0.31520646810531616
1789156688149611800,75.79961181640626,-0.018325956538319588,-0.10995574295520782,0.32559117674827576
1789156688229537300,75.87953735351563,-0.009162978269159794,-0.03848451003432274,0.17837265133857727
1789156688309493500,75.95949340820313,0.07757988572120667,0.06169738993048668,-0.022602014243602753
1789156688389461000,76.0394609375,0.4502076804637909,-0.01771509274840355,0.1472185254096985
1789156688469417000,76.1194169921875,0.5699372887611389,0.4245513379573822,-0.2571742534637451
1789156688549373200,76.19937329101562,0.39095374941825867,-0.0507018156349659,-0.2938261926174164
1789156688669124000,76.3191240234375,0.30543261766433716,0.13561208546161652,0.11423180252313614
1789156688749049600,76.39904956054687,0.02626720629632473,-0.3530801236629486,0.18631389737129211
1789156688828975000,76.47897509765625,-0.04398229718208313,-0.32131510972976685,-0.17959438264369965
1789156688908900600,76.55890063476562,-0.09896016865968704,-0.3744603991508484,-0.18631389737129211
1789156688988795600,76.63879565429687,-0.7391469478607178,0.46242499351501465,-0.7141014933586121
1789156689068690700,76.71869067382812,-0.45814892649650574,-0.02382374368607998,0.10690141469240189
1789156689148616200,76.7986162109375,-0.4599815309047699,0.27611109614372253,0.3237585723400116
1789156689228511200,76.87851123046875,-0.6017022728919983,-0.056810468435287476,0.23029619455337524
1789156689308467500,76.95846752929687,-0.2577851414680481,-0.3139847218990326,0.018936822190880775
1789156689388331800,77.03833178710937,0.43676865100860596,0.43615779280662537,0.37751471996307373
1789156689468226800,77.11822680664062,0.4043927788734436,-0.251676470041275,-0.5717698931694031
1789156689548182800,77.19818286132812,0.941343367099762,-0.6835582256317139,0.27000242471694946
1789156689628077800,77.27807788085937,0.5241223573684692,0.32681289315223694,-0.2730567753314972
1789156689708034000,77.35803393554687,0.5907067060470581,0.26939156651496887,0.2638937830924988
1789156689787929000,77.43792919921874,0.5082398653030396,-0.41111230850219727,0.2919935882091522
1789156689867854600,77.5178544921875,0.17898350954055786,-0.3897320330142975,-0.19608774781227112
1789156689947810600,77.597810546875,0.03298672288656235,0.12522737681865692,0.17776179313659668
1789156690067653000,77.71765307617187,0.14049901068210602,0.12767083942890167,0.323147714138031
1789156690147578600,77.79757861328125,-0.2577851414680481,0.18814650177955627,-0.45814892649650574
1789156690227473700,77.8774736328125,-0.022602014243602753,0.13744467496871948,0.17043140530586243
1789156690307399200,77.95739916992187,-0.1973094791173935,-0.1362229436635971,-0.26145032048225403
1789156690387324700,78.03732470703125,0.21563543379306793,-0.014049900695681572,-0.0806342139840126
1789156690467281000,78.11728100585937,0.6957755088806152,0.192422553896904,0.15943582355976105
1789156690547236900,78.19723681640625,0.8148942589759827,0.423329621553421,-0.3029891550540924
1789156690627162400,78.27716235351562,1.0170906782150269,-0.030543262138962746,0.5387831330299377
1789156690707088000,78.357087890625,0.8307767510414124,0.13988813757896423,0.06658431142568588
1789156690787074600,78.43707446289062,0.749531626701355,0.16493362188339233,0.5229006409645081
1789156690867000000,78.517,0.44226643443107605,-0.04337143152952194,0.4746423065662384
1789156690946895000,78.59689501953125,-0.22296582162380219,0.030543262138962746,-0.12950342893600464
1789156691026851000,78.67685107421875,-0.8668177723884583,-0.23029619455337524,-0.7483099102973938
1789156691106776600,78.75677661132812,-0.4398229718208313,0.5100724697113037,-0.7556403279304504
1789156691186702000,78.8367021484375,0.01466076634824276,-0.00366519158706069,0.6737843751907349
1789156691266627800,78.9166279296875,-0.14294247329235077,-0.03237585723400116,0.08674286305904388
1789156691346522600,78.99652270507812,-0.20952677726745605,-0.23335053026676178,-0.02015855349600315
1789156691426448400,79.07644848632812,-0.09468411654233932,-0.1313360333442688,-0.1973094791173935
1789156691506343400,79.15634350585937,0.53328537940979,0.17776179313659668,0.19792033731937408
1789156691586238200,79.23623828125,0.42760565876960754,0.1820378452539444,-0.3793473243713379
1789156691666164000,79.3161640625,0.8729264140129089,-0.38728857040405273,0.4954117238521576
1789156691746120000,79.39611987304687,0.675616979598999,0.19975294172763824,-0.05253441259264946
1789156691826015000,79.47601489257812,0.8038986921310425,0.04764748737215996,0.675006091594696
1789156691905910000,79.55590991210937,0.5106833577156067,-0.2718350291252136,0.3695734739303589
1789156691985774300,79.6357744140625,0.2816088795661926,-0.46731191873550415,0.08552113175392151
1789156692065639000,79.71563891601562,-0.7342600226402283,-0.29504790902137756,-1.3628404140472412
1789156692145534000,79.79553393554687,0.31642818450927734,0.6633996367454529,-0.006108652334660292
1789156692225490000,79.87548999023437,-0.2174680233001709,0.13866640627384186,-0.06169738993048668
1789156692305415700,79.95541577148437,-0.10201449692249298,0.4050036668777466,0.042760565876960754
1789156692385341200,80.03534106445312,0.19792033731937408,0.09651670604944229,0.1417207419872284
1789156692465236200,80.115236328125,0.2834414839744568,-0.08185594528913498,-0.12339477986097336
1789156692545131300,80.19513134765624,0.827111542224884,0.6682865619659424,0.4282165467739105
1789156692625026000,80.27502612304687,0.5870414972305298,-0.03848451003432274,-0.7476990818977356
1789156692704921000,80.35492114257812,1.312138557434082,-0.039706241339445114,0.25106561183929443
1789156692784877300,80.43487719726562,1.1093312501907349,0.4544837474822998,0.06780604273080826
1789156692904720000,80.55471997070312,1.0396926403045654,-0.2168571650981903,0.7073819637298584
1789156692984645400,80.63464526367187,0.3530801236629486,-0.1508837193250656,0.24984388053417206
1789156693064571000,80.71457080078125,-0.17104226350784302,0.0006108652451075613,-0.42699480056762695
1789156693144526800,80.79452685546875,-0.6291912198066711,-0.16493362188339233,-0.4642575979232788
1789156693224422000,80.874421875,-0.21930062770843506,0.3628539443016052,-0.34147366881370544
1789156693304347400,80.95434741210937,0.0757472887635231,0.22113321721553802,-0.03787364438176155
1789156693384212000,81.0342119140625,0.182648703455925,0.07941248267889023,0.12767083942890167
1789156693464138500,81.11413842773437,0.22296582162380219,-0.06230825558304787,-0.027488935738801956
1789156693544002800,81.1940029296875,0.43799036741256714,0.08857546001672745,-0.06169738993048668
1789156693623928600,81.27392846679687,0.9150761365890503,0.28466320037841797,0.4086688458919525
1789156693703884500,81.35388452148437,1.208902359008789,0.7544185519218445,-0.13316862285137177
1789156693783749000,81.4337490234375,1.0684033632278442,-0.17104226350784302,0.3933972120285034
1789156693863674600,81.51367456054687,0.7812966704368591,0.060475658625364304,-0.07696902006864548
1789156693943539000,81.5935390625,0.8197811841964722,-0.0861319974064827,0.47830748558044434
1789156694023403500,81.67340356445312,0.41111230850219727,-0.07024950534105301,0.19303341209888458
1789156694103268000,81.75326806640625,-0.14233160018920898,-0.1563815027475357,-0.12095131725072861
1789156694223141000,81.87314111328125,-1.072068452835083,0.17898350954055786,-0.6536257863044739
1789156694303066600,81.95306665039062,-0.2064724564552307,0.01710422709584236,0.2590068578720093
1789156694422909200,82.0729091796875,-0.15454891324043274,0.0861319974064827,0.13500121235847473
1789156694502804200,82.15280419921875,0.036041051149368286,-0.17104226350784302,0.06414084881544113
1789156694582699300,82.23269921875,0.08979719132184982,0.24678955972194672,0.15577064454555511
1789156694662624800,82.31262475585937,0.5919284224510193,0.12278391420841217,0.5516113042831421
1789156694742489300,82.3924892578125,-0.29504790902137756,-0.05925392732024193,-0.6811147332191467
1789156694822475800,82.47247583007812,0.969443142414093,-0.7202101349830627,0.8600982427597046
1789156694902370800,82.55237084960937,0.49296826124191284,0.4098905920982361,-0.15271630883216858
1789156694982265900,82.63226586914062,0.5259549617767334,0.1319468915462494,0.3390302062034607
1789156695062161000,82.71216088867187,0.42699480056762695,0.21930062770843506,0.2583959996700287
1789156695142086400,82.79208642578125,0.05497787147760391,-0.675006091594696,-0.23335053026676178
1789156695222012000,82.87201196289062,-0.3237585723400116,-0.3292563557624817,-0.5326744914054871
1789156695301937400,82.9519375,-0.4612032473087311,0.3084869384765625,-0.4538728892803192
1789156695381863200,83.03186328125,-0.31459560990333557,0.07513642311096191,-0.07513642311096191
1789156695461819100,83.11181909179687,-0.394618958234787,-0.033597588539123535,-0.18509216606616974
1789156695541683700,83.19168359375,-0.22907446324825287,-0.20525072515010834,-0.11484266817569733
1789156695621639700,83.2716396484375,-0.10812314599752426,-0.029932396486401558,-0.20891591906547546
1789156695701595600,83.351595703125,0.48197266459465027,0.323147714138031,-0.06475171446800232
1789156695781521200,83.43152124023437,0.3017674386501312,0.5577199459075928,-0.3891211748123169
1789156695901394200,83.55139428710937,0.6279694437980652,0.15821409225463867,0.23151792585849762
1789156695981320000,83.63131982421875,0.43676865100860596,0.13500121235847473,0.3017674386501312
1789156696101162200,83.75116235351562,0.4343251883983612,-0.17531833052635193,0.4343251883983612
1789156696181088000,83.831087890625,-0.1820378452539444,-0.665232241153717,0.2779437005519867
1789156696261013500,83.91101342773437,-0.8069530129432678,-0.10812314599752426,-0.8197811841964722
1789156696340939000,83.99093896484375,-0.22296582162380219,0.10445795953273773,-0.25595253705978394
1789156696420864500,84.07086450195312,-0.38117989897727966,0.28527405858039856,-0.29016098380088806
1789156696500790000,84.1507900390625,-0.3628539443016052,0.021380282938480377,0.2834414839744568
1789156696580746000,84.23074609375,-0.2785545587539673,-0.2125810980796814,-0.07452555745840073
1789156696660671700,84.31067163085937,-0.1319468915462494,-0.18631389737129211,-0.009773843921720982
1789156696740566500,84.39056640625,0.37262779474258423,0.3897320330142975,-0.004886921960860491
1789156696820522800,84.47052270507812,0.40194934606552124,0.1569923609495163,-0.2932153046131134
1789156696900478700,84.55047875976562,0.827722430229187,-0.45692721009254456,0.43737950921058655
1789156696980343300,84.63034326171875,0.30543261766433716,0.4599815309047699,0.1612684279680252
1789156697060268800,84.71026879882812,0.3274237811565399,0.16798794269561768,0.5699372887611389
1789156697140194300,84.7901943359375,0.1820378452539444,-0.3439171314239502,0.3121521472930908
1789156697220089300,84.87008935546875,-0.09285151958465576,-0.3341432809829712,0.12889257073402405
1789156697339962400,84.98996240234375,-0.8900306820869446,0.05619960278272629,-1.1948524713516235
1789156697419857400,85.069857421875,-0.1362229436635971,0.15454891324043274,-0.31459560990333557
1789156697499752400,85.14975244140625,-0.02321287989616394,0.13011430203914642,-0.3237585723400116
1789156697579647500,85.2296474609375,0.1411098688840866,0.05925392732024193,0.2993239760398865
1789156697699459600,85.34945947265625,0.12461651116609573,-0.11667526513338089,0.23090706765651703
1789156697779415600,85.42941552734375,0.25595253705978394,0.5803219676017761,-0.36163222789764404
1789156697859371500,85.50937158203125,-0.15332718193531036,-0.3695734739303589,-0.6188064813613892
1789156697939266600,85.5892666015625,1.2467759847640991,-0.010995574295520782,0.2028072625398636
1789156698019192000,85.66919213867187,1.0012081861495972,0.10384709388017654,1.0134254693984985
1789156698139095800,85.789095703125,-0.31642818450927734,0.03481931984424591,-0.41722095012664795
1789156698218990800,85.86899096679687,-0.47708576917648315,-0.1368338167667389,-0.2125810980796814
1789156698298855200,85.94885522460937,-0.35124751925468445,-0.4905247986316681,0.6029239892959595
1789156698378750200,86.02875024414062,-0.8319984674453735,-0.4660901725292206,0.4129449129104614
1789156698458667500,86.10866748046875,-0.808174729347229,0.2474004179239273,-0.9932668805122375
1789156698538562600,86.1885625,-0.25106561183929443,1.1349875926971436,-1.1496484279632568
1789156698618488000,86.26848803710938,0.6212499737739563,-0.3683517575263977,-0.0006108652451075613
1789156698698413800,86.34841381835938,1.660942554473877,0.6524040699005127,0.8533787727355957
1789156698778308600,86.42830859375,1.1606439352035522,-0.35246923565864563,0.06780604273080826
1789156698858203600,86.50820361328125,-0.6530149579048157,-0.17104226350784302,0.17837265133857727
1789156698938098700,86.5880986328125,-1.340238332748413,-0.3738495409488678,-0.3481931984424591
1789156699017993700,86.66799365234375,-0.6908885836601257,-0.25473082065582275,0.8613200187683105
1789156699097919200,86.74791918945313,-1.0922271013259888,0.08307767659425735,-0.2993239760398865
1789156699177844700,86.8278447265625,-0.49296826124191284,-0.09651670604944229,-1.112385630607605
1789156699257709300,86.90770922851563,0.3982841372489929,-0.35124751925468445,-0.24923302233219147
1789156699337665500,86.98766552734375,1.786780834197998,0.37568211555480957,0.7092145681381226
1789156699417560300,87.06756030273438,1.0629055500030518,0.2382374405860901,0.9621127843856812
1789156699497577500,87.14757739257813,0.827111542224884,-0.08735372871160507,0.05009094998240471
1789156699577472500,87.22747241210938,0.31093040108680725,0.523511528968811,-0.02321287989616394
1789156699697376000,87.3473759765625,-0.6499606370925903,-0.7159340381622314,-0.2822197377681732
1789156699777301800,87.4273017578125,-0.46242499351501465,-0.3194825351238251,0.09773843735456467
1789156699857166000,87.507166015625,-0.8527678847312927,-0.4489859640598297,-0.14905111491680145
1789156699937091600,87.58709155273438,-0.7305948138237,0.09285151958465576,-1.7733417749404907
1789156700016986600,87.66698657226563,-0.06841690838336945,-0.24190263450145721,0.7391469478607178
1789156700096912100,87.746912109375,-0.5949827432632446,-0.16982053220272064,-0.6475171446800232
1789156700176838000,87.826837890625,-0.5485569834709167,0.31642818450927734,-0.6298020482063293
1789156700256732700,87.90673266601563,-0.13744467496871948,-0.3445279896259308,-0.1612684279680252
1789156700336658400,87.98665844726563,-0.042760565876960754,0.16004669666290283,-0.3396410644054413
1789156700416584000,88.066583984375,-0.6475171446800232,0.44654250144958496,-1.4440854787826538
1789156700496540000,88.14653979492188,0.1472185254096985,0.40072759985923767,1.0421360731124878
1789156700576435000,88.22643505859375,1.084285855293274,0.0354301854968071,0.7678576111793518
1789156700656330000,88.306330078125,0.5149593949317932,0.16493362188339233,0.7220427393913269
1789156700776294700,88.42629467773438,0.7287622094154358,-0.24923302233219147,0.3787364661693573
1789156700856220200,88.50622021484375,0.6768386960029602,-0.21380282938480377,0.7250970602035522
1789156700936115200,88.586115234375,0.3078760802745819,-0.20830504596233368,0.5265658497810364
1789156701016040700,88.66604077148438,0.06841690838336945,-0.6475171446800232,0.3176499307155609
1789156701095966200,88.74596630859375,0.015271631069481373,0.08185594528913498,0.2742784917354584
1789156701175891700,88.8258916015625,-0.7953465580940247,0.152105450630188,-0.4648684561252594
1789156701255786800,88.90578686523438,-0.015882495790719986,0.04214970022439957,-0.10201449692249298
1789156701335681800,88.98568188476563,-0.04092797264456749,0.04214970022439957,-0.12950342893600464
1789156701415607300,89.06560717773438,0.09162978827953339,-0.32620203495025635,0.036651913076639175
1789156701495471900,89.14547192382813,0.16982053220272064,-0.3842342495918274,-0.07147123664617538
1789156701575427800,89.225427734375,0.5638286471366882,0.5760459303855896,0.6017022728919983
1789156701695270400,89.3452705078125,0.93095862865448,0.4990769028663635,0.06108652427792549
1789156701775226400,89.42522631835938,0.6352998614311218,0.19425514340400696,0.42638394236564636
1789156701855213000,89.50521313476563,0.3897320330142975,0.34513887763023376,0.001832595793530345
1789156701935138600,89.585138671875,0.4294382631778717,-0.2217440903186798,0.455705463886261
1789156702015064000,89.66506396484375,-0.1160643994808197,-0.29626965522766113,0.2174680233001709
1789156702094959000,89.744958984375,-0.384845107793808,-0.14966198801994324,0.12034045159816742
1789156702174854100,89.82485424804688,-0.911410927772522,0.2223549485206604,-0.5754350423812866
1789156702254749200,89.90474926757813,-0.7159340381622314,-0.0806342139840126,-0.23640485107898712
1789156702334674700,89.9846748046875,-0.46731191873550415,-0.06780604273080826,-0.20402899384498596
1789156702414600200,90.06460009765625,-0.44165557622909546,-0.6407976150512695,-0.04153883829712868
1789156702494525700,90.14452563476563,-0.33292156457901,0.006108652334660292,-0.19058994948863983
1789156702574482000,90.22448193359375,0.16859880089759827,0.4807509481906891,0.36651915311813354
1789156702694324200,90.34432421875,0.8338310718536377,-0.04581489413976669,0.2015855312347412
1789156702774280400,90.42428051757813,0.5265658497810364,-0.16493362188339233,0.18936823308467865
1789156702854206000,90.5042060546875,0.40133845806121826,-0.18387043476104736,0.17104226350784302
1789156702934131500,90.58413134765625,0.3433062732219696,-0.6530149579048157,0.6542366743087769
1789156703014087400,90.66408740234375,0.13927727937698364,-0.26450464129447937,0.4899139404296875
1789156703093982500,90.743982421875,-0.029932396486401558,0.11972958594560623,0.47280970215797424
1789156703173877500,90.82387744140625,-0.9804387092590332,0.3084869384765625,-0.7385360598564148
1789156703253803000,90.90380297851563,-0.6621779203414917,0.22052235901355743,-0.33047810196876526
1789156703333728800,90.98372875976563,-0.1215621829032898,0.0006108652451075613,-0.1966986060142517
1789156703413715200,91.06371508789063,-0.07513642311096191,-0.2828305959701538,-0.11545353382825851
1789156703493603600,91.143603515625,-0.01771509274840355,-0.16065755486488342,-0.3017674386501312
1789156703573529000,91.22352905273438,0.4709770977497101,0.6817256212234497,0.19058994948863983
1789156703653454600,91.30345458984375,0.39645153284072876,-0.03726277872920036,-0.3591887652873993
1789156703733380000,91.38338012695313,0.38179078698158264,-0.04214970022439957,-0.11789698898792267
1789156703813305600,91.4633056640625,0.3793473243713379,0.02076941914856434,0.3842342495918274
1789156703933209300,91.58320922851563,0.33719760179519653,-0.36224308609962463,0.3170390725135803
1789156704013134800,91.663134765625,0.20952677726745605,-0.08979719132184982,-0.24007004499435425
1789156704092999200,91.74299926757813,-0.21074850857257843,0.18631389737129211,-0.15882496535778046
1789156704172924700,91.82292456054688,-0.6743952035903931,0.3854559659957886,-0.2015855312347412
1789156704252819700,91.90281982421875,-0.36163222789764404,-0.27550023794174194,0.21441370248794556
1789156704372723500,92.02272338867188,-0.18448130786418915,-0.11239920556545258,-0.005497787147760391
1789156704452679400,92.10267944335938,-0.15882496535778046,-0.5497786998748779,-0.2577851414680481
1789156704532635400,92.18263549804688,0.48808133602142334,-1.3274102210998535,0.6615670323371887
1789156704612591600,92.26259155273438,0.23273965716362,-0.24190263450145721,-0.9847147464752197
1789156704692547600,92.34254760742188,-0.003054326167330146,0.9859365224838257,-0.6395758986473083
1789156704772473000,92.42247314453125,0.16065755486488342,0.11667526513338089,-0.03787364438176155
1789156704892346000,92.54234619140625,0.4990769028663635,0.3543018400669098,0.5522221922874451
1789156705012188700,92.66218872070313,0.009162978269159794,-0.6695083379745483,0.18020524084568024
1789156705092144600,92.74214453125,-0.21807889640331268,0.013439035043120384,0.4398229718208313
1789156705172039700,92.82203979492188,-0.9456194043159485,-0.16737708449363708,-0.44165557622909546
1789156705291851800,92.94185180664063,-0.09285151958465576,-0.1014036312699318,0.24129177629947662
1789156705371838500,93.02183837890625,-0.4856378734111786,0.016493361443281174,-0.24190263450145721
1789156705451794400,93.10179443359375,-0.2926044464111328,-0.2877175211906433,-0.19303341209888458
1789156705531659000,93.18165893554688,0.056810468435287476,-0.07452555745840073,0.0959058403968811
1789156705611554000,93.26155395507813,0.21624629199504852,0.9236282706260681,-0.32498031854629517
1789156705691479600,93.3414794921875,0.3194825351238251,-0.7428121566772461,0.2474004179239273
1789156705771405000,93.42140502929688,0.6884451508522034,-0.21991148591041565,0.5125159621238708
1789156705851361000,93.50136108398438,-0.2528982162475586,0.2974913716316223,-0.26572638750076294
1789156705931286500,93.58128662109375,0.17592918872833252,-0.14782938361167908,0.3029891550540924
1789156706051129000,93.70112915039063,-0.10690141469240189,-0.2730567753314972,-0.02626720629632473
1789156706170971600,93.8209716796875,-1.009149432182312,0.1319468915462494,-0.7965682744979858
1789156706290875100,93.94087524414063,-0.41661009192466736,-0.007941247895359993,-0.11545353382825851
1789156706370770200,94.02077026367188,-0.27977627515792847,-0.01160643994808197,0.07941248267889023
1789156706450695700,94.10069580078125,-0.2021963894367218,-0.44715335965156555,-0.04886921867728233
1789156706530621400,94.18062133789063,-0.06169738993048668,-0.21991148591041565,0.36651915311813354
1789156706610547000,94.260546875,0.3988949954509735,0.8234463334083557,0.34025195240974426
1789156706690411300,94.34041137695313,0.6243042945861816,-0.02687807008624077,-0.1508837193250656
1789156706770337000,94.4203369140625,0.46242499351501465,-0.42760565876960754,-0.28038713335990906
1789156706850171000,94.5001708984375,0.39217549562454224,0.22602014243602753,0.504574716091156
1789156706930066000,94.58006591796875,0.42149701714515686,0.30543261766433716,0.23029619455337524
1789156707010022000,94.66002197265625,0.05192354694008827,-0.23090706765651703,0.11423180252313614
1789156707089978000,94.73997802734375,-0.33475416898727417,-0.19975294172763824,-0.3793473243713379
1789156707169903600,94.81990356445313,-0.30604347586631775,0.35063666105270386,0.00733038317412138
1789156707249859600,94.89985961914063,-0.5564982295036316,0.5161811113357544,-0.26511552929878235
1789156707329754600,94.97975463867188,-0.17531833052635193,-0.15454891324043274,-0.10812314599752426
1789156707409649700,95.05964965820313,-0.17837265133857727,-0.06780604273080826,0.22968533635139465
1789156707489575200,95.1395751953125,0.09834930300712585,-0.23335053026676178,0.17592918872833252
1789156707569409300,95.2194091796875,0.2730567753314972,-0.0806342139840126,0.07941248267889023
1789156707649334800,95.29933471679688,0.7116580009460449,-0.49785518646240234,-0.025045474991202354
1789156707729260300,95.37926025390625,0.9046914577484131,0.2168571650981903,0.10873401165008545
1789156707809216300,95.45921630859375,0.32131510972976685,0.14294247329235077,0.3176499307155609
1789156707889141800,95.53914184570313,0.21807889640331268,0.06230825558304787,0.04398229718208313
1789156707969036800,95.61903686523438,0.06658431142568588,-0.2028072625398636,0.11972958594560623
1789156708048993000,95.69899291992188,-0.11545353382825851,-0.4404338300228119,0.08918632566928864
1789156708128918500,95.77891845703125,-0.4178318381309509,-0.00855211354792118,-0.025045474991202354
1789156708208813600,95.8588134765625,-0.9847147464752197,0.46792277693748474,-0.5711590051651001
1789156708288708600,95.93870849609375,-0.3982841372489929,-0.11667526513338089,-0.24617868661880493
1789156708368664600,96.01866455078125,-0.4184426963329315,-0.11728613078594208,-0.413555771112442
1789156708448620500,96.09862060546875,-0.3176499307155609,-0.1270599663257599,0.2535090744495392
1789156708528483600,96.17848364257813,-0.29504790902137756,-0.31520646810531616,-0.04764748737215996
1789156708608409000,96.2584091796875,0.030543262138962746,-0.05864306539297104,0.36529740691185
1789156708688365000,96.33836499023438,0.4960225820541382,-0.4178318381309509,-0.21013765037059784
1789156708768351700,96.41835180664063,0.6255260109901428,-0.00855211354792118,0.4153883755207062
1789156708888255200,96.53825512695313,0.2321287989616394,0.2474004179239273,0.242513507604599
1789156708968242000,96.61824194335938,0.24129177629947662,-0.018325956538319588,0.28527405858039856
1789156709048198000,96.69819799804688,0.04214970022439957,-0.23029619455337524,0.15943582355976105
1789156709168071000,96.81807080078126,-0.3488040566444397,-0.2070833146572113,-0.2076941877603531
1789156709248057600,96.8980576171875,-0.5632177591323853,0.5729916095733643,-0.6224716901779175
1789156709328013600,96.978013671875,-0.3677408695220947,0.11911872029304504,-0.10323622822761536
1789156709407939000,97.05793896484376,-0.3481931984424591,0.025656340643763542,0.10445795953273773
1789156709487895300,97.13789526367188,-0.3683517575263977,-0.20341812074184418,0.07208210229873657
1789156709567881700,97.2178818359375,-0.23945917189121246,-0.2076941877603531,-0.10018189996480942
1789156709647807200,97.29780712890626,0.3335324227809906,0.44593164324760437,0.2926044464111328
1789156709727732700,97.37773266601563,0.2064724564552307,-0.39706242084503174,-0.455705463886261
1789156709807689000,97.45768896484375,0.7238753437995911,-0.08124507963657379,-0.02321287989616394
1789156709887645000,97.53764501953125,0.6432411074638367,0.49724429845809937,0.31581732630729675
1789156709967601000,97.61760083007813,0.4911356568336487,0.17592918872833252,0.2687807083129883
1789156710047526700,97.69752661132813,0.375071257352829,-0.5699372887611389,0.09896016865968704
1789156710127452200,97.7774521484375,0.3805690407752991,-0.42149701714515686,-0.05742133408784866
1789156710207316500,97.85731640625,-0.28649580478668213,0.14233160018920898,-0.5180137157440186
1789156710287211500,97.93721142578126,-0.799011766910553,-0.04337143152952194,-1.1001683473587036
1789156710367167700,98.01716772460938,-0.2718350291252136,-0.21807889640331268,0.18081611394882202
1789156710447032000,98.09703198242188,-0.4612032473087311,-0.26022860407829285,-0.513126790523529
1789156710526866200,98.1768662109375,-0.7629706859588623,0.28099802136421204,-0.16859880089759827
1789156710606730800,98.25673071289063,-0.07330382615327835,-0.12339477986097336,0.22296582162380219
1789156710726634200,98.37663427734375,0.2382374405860901,0.05864306539297104,-0.01466076634824276
1789156710806559700,98.45655981445313,0.8289441466331482,0.3378084897994995,0.7812966704368591
1789156710886515700,98.536515625,1.2620476484298706,0.4758640229701996,-0.35124751925468445
1789156710966472000,98.61647192382813,-0.6206390857696533,0.13744467496871948,-0.6896668672561646
1789156711046428000,98.69642797851563,-0.17776179313659668,0.006108652334660292,0.9914342761039734
1789156711126383900,98.7763837890625,0.1820378452539444,0.17470745742321014,-0.021991148591041565
1789156711206309600,98.8563095703125,-0.44715335965156555,-0.41599923372268677,0.3176499307155609
1789156711286265600,98.936265625,-0.4349360466003418,0.16920967400074005,-0.8704829812049866
1789156711366191000,99.01619116210938,0.740368664264679,-0.28588494658470154,0.23518311977386475
1789156711446116600,99.09611669921875,0.7305948138237,-0.1264491081237793,-0.252287358045578
1789156711526072600,99.17607250976563,0.22296582162380219,0.8698720932006836,-0.039706241339445114
1789156711605937200,99.25593725585938,0.26083946228027344,-0.9358455538749695,0.16065755486488342
1789156711685862700,99.33586254882813,-0.1313360333442688,0.6194173693656921,0.07147123664617538
1789156711765788200,99.4157880859375,0.4288274049758911,-0.1258382350206375,0.5461135506629944
1789156711845714000,99.4957138671875,-0.5345070958137512,-0.0757472887635231,-0.7452555894851685
1789156711925609000,99.57560888671875,0.03787364438176155,0.2767219543457031,-0.9291260242462158
1789156712045482000,99.69548193359375,1.3365731239318848,-0.21013765037059784,0.25534167885780334
1789156712125407500,99.77540747070313,0.47830748558044434,0.6475171446800232,-0.2926044464111328
1789156712205363500,99.85536352539063,-0.616973876953125,-0.34208452701568604,-0.20586158335208893
1789156712285319400,99.9353193359375,-0.15882496535778046,-0.24129177629947662,0.24190263450145721
1789156712365214500,100.01521435546876,-0.7507534027099609,0.1411098688840866,0.009162978269159794
1789156712445170700,100.09517065429688,-0.8808676600456238,-0.3280346393585205,-0.5369505286216736
1789156712525035000,100.17503491210938,-0.05619960278272629,-0.23579397797584534,0.34574973583221436
1789156712644969200,100.29496923828125,1.1068878173828125,1.9022343158721924,0.817337691783905
1789156712724864300,100.3748642578125,-0.7757988572120667,-1.7342463731765747,-0.940121591091156
1789156712804759300,100.45475927734375,1.3145819902420044,0.5742133259773254,-0.4440990388393402
1789156712924693200,100.574693359375,0.13072516024112701,-0.12950342893600464,-0.13805554807186127
1789156713044505300,100.69450537109375,-0.5064072608947754,-0.9285151958465576,0.49724429845809937
1789156713124339200,100.77433911132813,-0.2687807083129883,0.1563815027475357,0.46181413531303406
1789156713204203800,100.85420385742188,-1.4489723443984985,-0.1814269721508026,-1.0482447147369385
1789156713284129300,100.93412939453125,0.07024950534105301,-0.4612032473087311,0.3488040566444397
1789156713363963400,101.01396337890625,-0.394008070230484,-0.6414085030555725,0.5125159621238708
1789156713443858400,101.0938583984375,-0.3219259977340698,-0.28527405858039856,0.11972958594560623
1789156713523753500,101.17375341796875,-0.12950342893600464,0.35124751925468445,0.5589417219161987
1789156713603679200,101.25367919921875,0.1160643994808197,-0.655458390712738,-0.039706241339445114
1789156713683604700,101.33360473632813,0.25961771607398987,-0.08857546001672745,-0.3280346393585205
1789156713763530500,101.41353051757812,0.846659243106842,0.16554448008537292,0.6120869517326355
1789156713883434000,101.53343408203125,0.5393940210342407,-0.08246681094169617,0.31642818450927734
1789156714003307000,101.65330712890625,-0.1667662113904953,0.0354301854968071,-0.0757472887635231
1789156714083171600,101.73317163085937,-0.979827880859375,0.10812314599752426,-1.0005972385406494
1789156714163097000,101.81309716796875,-0.7165449261665344,-0.022602014243602753,-0.8594874143600464
1789156714242992000,101.8929921875,-0.543059229850769,-0.22113321721553802,0.03176499158143997
1789156714322856400,101.9728564453125,-0.3781255781650543,-0.17287486791610718,0.22968533635139465
1789156714402782200,102.0527822265625,-0.3433062732219696,-0.10751228034496307,0.21930062770843506
1789156714482707700,102.13270776367187,0.3194825351238251,0.051312681287527084,0.6707300543785095
1789156714602550300,102.25255029296875,0.6609562039375305,0.13866640627384186,0.2791654169559479
1789156714682445300,102.3324453125,0.7764097452163696,0.5687155723571777,0.46670106053352356
