time,seconds_elapsed,z,y,x
1789156612585431800,0.235431884765625,0.0012217304902151227,0.05375614017248154,-0.01771509274840355
1789156612645368300,0.295368408203125,0.0012217304902151227,0.05375614017248154,-0.01771509274840355
1789156612705335600,0.35533544921875,0.313373863697052,-0.607200026512146,-0.9254608750343323
1789156612765302500,0.415302490234375,-0.817948579788208,-0.8979719281196594,-0.5412266254425049
1789156612825239000,0.475239013671875,0.6243042945861816,-0.4862487316131592,-1.1924089193344116
1789156612885175600,0.535175537109375,-0.019547687843441963,-0.05314527451992035,-0.7483099102973938
1789156612945142500,0.595142578125,-0.4489859640598297,0.3029891550540924,-0.2174680233001709
1789156613005109800,0.65510986328125,-0.08368854224681854,0.37079519033432007,-0.3549126982688904
1789156613065015600,0.715015625,0.20463985204696655,-0.08002334833145142,-0.34513887763023376
1789156613124921600,0.774921630859375,-0.4642575979232788,-0.25045475363731384,-0.14844025671482086
1789156613184827600,0.83482763671875,0.8405506014823914,1.6310101747512817,0.7214318513870239
1789156613244733700,0.894733642578125,1.3836097717285156,1.8069393634796143,1.3897184133529663
1789156613304670200,0.954670166015625,-1.431868076324463,-0.6352998614311218,-0.7684684991836548
1789156613364606700,1.014606689453125,-0.2565633952617645,-1.054964303970337,-0.6994407176971436
1789156613424512800,1.0745126953125,-0.03787364438176155,-0.24923302233219147,-0.26145032048225403
1789156613484418800,1.134418701171875,0.08307767659425735,0.06475171446800232,-0.015882495790719986
1789156613544385800,1.1943857421875,0.048258353024721146,0.22846360504627228,-0.004886921960860491
1789156613604291800,1.254291748046875,0.015271631069481373,-0.09651670604944229,-0.11545353382825851
1789156613664258800,1.3142587890625,-0.056810468435287476,-0.14049901068210602,-0.14538592100143433
1789156613724225800,1.374225830078125,-0.07024950534105301,-0.12950342893600464,-0.039095375686883926
1789156613784131800,1.4341318359375,-0.03420845419168472,0.05497787147760391,0.021991148591041565
1789156613844098800,1.494098876953125,-0.004886921960860491,-0.02687807008624077,-0.1270599663257599
1789156613903974400,1.553974365234375,-0.007941247895359993,-0.05864306539297104,-0.02015855349600315
1789156613963911000,1.613910888671875,0.006108652334660292,-0.09896016865968704,-0.06291911751031876
1789156614023817000,1.67381689453125,0.021380282938480377,-0.02687807008624077,0.012217304669320583
1789156614083723000,1.733722900390625,0.03298672288656235,-0.05253441259264946,-0.02687807008624077
1789156614143659500,1.793659423828125,0.04337143152952194,0.01038470957428217,-0.02321287989616394
1789156614203596000,1.853595947265625,-0.0012217304902151227,-0.04642575979232788,0.025045474991202354
1789156614263532500,1.913532470703125,0.01038470957428217,0,-0.048258353024721146
1789156614323469000,1.973468994140625,0.039095375686883926,-0.024434609338641167,0.03848451003432274
1789156614383375000,2.033375,0.012217304669320583,0.018936822190880775,-0.028099801391363144
1789156614443342000,2.093342041015625,-0.029932396486401558,0.04703662544488907,-0.07147123664617538
1789156614563184600,2.2131845703125,0.014049900695681572,-0.05192354694008827,0.03481931984424591
1789156614623121200,2.27312109375,0.00427605677396059,-0.028099801391363144,0.028099801391363144
1789156614683057700,2.3330576171875,-0.05925392732024193,-0.00855211354792118,0.03237585723400116
1789156614742963700,2.392963623046875,-0.11423180252313614,0.08857546001672745,0.0403171069920063
1789156614802869800,2.452869873046875,-0.12339477986097336,-0.0959058403968811,-0.1215621829032898
1789156614862836700,2.512836669921875,-0.05314527451992035,-0.0024434609804302454,-0.09834930300712585
1789156614922773200,2.572773193359375,-0.07757988572120667,0.09712757170200348,0.006108652334660292
1789156614982709800,2.632709716796875,-0.07147123664617538,0.10323622822761536,0.0959058403968811
1789156615042646300,2.692646240234375,-0.00733038317412138,0.01038470957428217,-0.01710422709584236
1789156615102552300,2.75255224609375,-0.028099801391363144,-0.0354301854968071,0.018325956538319588
1789156615162488800,2.81248876953125,-0.04581489413976669,0.012217304669320583,-0.07513642311096191
1789156615222455800,2.872455810546875,-0.025656340643763542,-0.01038470957428217,0.021380282938480377
1789156615282422800,2.9324228515625,0.021380282938480377,-0.02076941914856434,-0.012828170321881771
1789156615342390000,2.99239013671875,0.010995574295520782,-0.04153883829712868,0.02626720629632473
1789156615402326500,3.052326416015625,-0.013439035043120384,0.009162978269159794,-0.005497787147760391
1789156615462263000,3.112262939453125,-0.022602014243602753,-0.018325956538319588,0.004886921960860491
1789156615522230000,3.17222998046875,-0.019547687843441963,0.007941247895359993,0.010995574295520782
1789156615582197000,3.232197021484375,-0.02382374368607998,-0.00733038317412138,-0.00427605677396059
1789156615642133500,3.292133544921875,-0.015882495790719986,0.012217304669320583,-0.007941247895359993
1789156615702070000,3.352070068359375,-0.01160643994808197,-0.009162978269159794,-0.00855211354792118
1789156615762037200,3.412037353515625,-0.024434609338641167,-0.030543262138962746,-0.02687807008624077
1789156615822004200,3.472004150390625,-0.04337143152952194,-0.0555887371301651,-0.029932396486401558
1789156615881971200,3.53197119140625,-0.04642575979232788,0.01160643994808197,-0.0012217304902151227
1789156615981824800,3.63182470703125,0.00427605677396059,-0.006719517521560192,0.005497787147760391
1789156616041761300,3.69176123046875,-0.025656340643763542,0.006108652334660292,-0.005497787147760391
1789156616101728300,3.751728271484375,-0.029932396486401558,0.009773843921720982,-0.00855211354792118
1789156616161634300,3.81163427734375,-0.01710422709584236,-0.039706241339445114,-0.018325956538319588
1789156616221570800,3.87157080078125,0.02932153269648552,-0.17470745742321014,0.17470745742321014
1789156616281476900,3.931476806640625,-0.02015855349600315,-0.11178833991289139,0.2125810980796814
1789156616341383000,3.9913828125,0.0006108652451075613,0.05375614017248154,-0.15027284622192383
1789156616401350000,4.051349853515625,0.009162978269159794,0.05864306539297104,0.048258353024721146
1789156616461256000,4.111255859375,0.012828170321881771,0.06108652427792549,-0.11239920556545258
1789156616521192400,4.1711923828125,0.003054326167330146,0.025656340643763542,-0.005497787147760391
1789156616581098500,4.231098388671875,0.0006108652451075613,0.03298672288656235,-0.02932153269648552
1789156616640943400,4.290943359375,0.016493361443281174,0,-0.04459316283464432
1789156616700910300,4.350910400390625,0.001832595793530345,0.001832595793530345,0.001832595793530345
1789156616760816400,4.41081640625,0,0.04214970022439957,-0.01466076634824276
1789156616820722400,4.470722412109375,0,-0.01710422709584236,-0.030543262138962746
1789156616880628500,4.53062841796875,-0.009162978269159794,0.014049900695681572,-0.012217304669320583
1789156616940595500,4.590595458984375,-0.001832595793530345,-0.016493361443281174,-0.030543262138962746
1789156617000501500,4.65050146484375,-0.021380282938480377,-0.01466076634824276,-0.00427605677396059
1789156617060438000,4.71043798828125,-0.007941247895359993,0.06658431142568588,0.06291911751031876
1789156617120405000,4.770405029296875,-0.009773843921720982,0.01710422709584236,0.016493361443281174
1789156617180341500,4.830341552734375,0.060475658625364304,-0.10751228034496307,-0.25106561183929443
1789156617240308700,4.890308837890625,0.00427605677396059,0.036651913076639175,-0.18570303916931152
1789156617360151000,5.010151123046875,0.04764748737215996,-0.18936823308467865,-0.04153883829712868
1789156617420087600,5.070087646484375,-0.05375614017248154,0.1014036312699318,0.00855211354792118
1789156617479993600,5.12999365234375,0.012217304669320583,0.010995574295520782,-0.14049901068210602
1789156617539960800,5.1899609375,-0.02871066704392433,0.00366519158706069,-0.012828170321881771
1789156617599927800,5.249927734375,-0.010995574295520782,0.02687807008624077,-0.02382374368607998
1789156617659864300,5.3098642578125,0.004886921960860491,0.024434609338641167,-0.07330382615327835
1789156617719815000,5.36981494140625,0.02932153269648552,0.006719517521560192,-0.08124507963657379
1789156617779721000,5.429720947265625,0.059864792972803116,0.009773843921720982,-0.08918632566928864
1789156617839657500,5.489657470703125,0.1466076523065567,0.06902777403593063,0.04214970022439957
1789156617899624400,5.54962451171875,0.1973094791173935,0.005497787147760391,0.01466076634824276
1789156617959530500,5.609530517578125,0.04886921867728233,-0.029932396486401558,0.03420845419168472
1789156618019467000,5.669467041015625,-0.09712757170200348,0.11178833991289139,0.009773843921720982
1789156618079403500,5.729403564453125,-0.04398229718208313,0.06230825558304787,0.2993239760398865
1789156618139309600,5.7893095703125,0.04214970022439957,0.1270599663257599,0.13561208546161652
1789156618199246000,5.84924609375,0.03787364438176155,0.021380282938480377,-0.1313360333442688
1789156618259182600,5.9091826171875,-0.021991148591041565,-0.1014036312699318,-0.1966986060142517
1789156618319149600,5.969149658203125,0.06352998316287994,0.04581489413976669,-0.02321287989616394
1789156618379025200,6.029025146484375,-0.1472185254096985,-0.5894849896430969,0.02015855349600315
1789156618438961700,6.088961669921875,-0.2736676335334778,-0.05925392732024193,-0.06230825558304787
1789156618498867500,6.148867431640625,-0.06658431142568588,0.09712757170200348,0.30604347586631775
1789156618558804000,6.208803955078125,-0.0403171069920063,0.07819075137376785,0.39645153284072876
1789156618618740700,6.26874072265625,0.006719517521560192,0.17287486791610718,0.06169738993048668
1789156618718624800,6.368624755859375,0.06291911751031876,0.16982053220272064,-0.013439035043120384
1789156618778530600,6.428530517578125,-0.01710422709584236,0.251676470041275,-0.4948008358478546
1789156618838467000,6.488467041015625,0.5632177591323853,0.2590068578720093,0.2565633952617645
1789156618898403600,6.548403564453125,0.29626965522766113,-0.030543262138962746,0.2669481039047241
1789156618958340000,6.608340087890625,0.40194934606552124,0.1466076523065567,0.1160643994808197
1789156619018307300,6.668307373046875,0.413555771112442,0.003054326167330146,0.48197266459465027
1789156619078274300,6.7282744140625,0.23151792585849762,-0.09834930300712585,0.40256020426750183
1789156619138241300,6.7882412109375,-0.012828170321881771,-0.1062905490398407,0.2028072625398636
1789156619198208500,6.84820849609375,-0.10506882518529892,-0.1661553531885147,-0.03481931984424591
1789156619258145000,6.90814501953125,-0.16798794269561768,-0.1466076523065567,0.13439035415649414
1789156619318081500,6.96808154296875,-0.19425514340400696,0.18936823308467865,0.1869247704744339
1789156619378048500,7.028048583984375,-0.6695083379745483,-0.08429940044879913,-0.5540547966957092
1789156619438015500,7.088015380859375,-0.37751471996307373,0.04703662544488907,-0.18997909128665924
1789156619497952000,7.147951904296875,-0.2571742534637451,-0.1215621829032898,0.10934487730264664
1789156619557888500,7.207888427734375,-0.18814650177955627,-0.1062905490398407,0.17287486791610718
1789156619617855500,7.26785546875,-0.21624629199504852,-0.12461651116609573,0.35246923565864563
1789156619677822700,7.32782275390625,-0.29565876722335815,-0.20097467303276062,0.06291911751031876
1789156619737759200,7.38775927734375,-0.10201449692249298,-0.21319197118282318,-0.1062905490398407
1789156619797665300,7.447665283203125,0.14049901068210602,-0.04764748737215996,0.11362093687057495
1789156619857601800,7.507601806640625,0.36224308609962463,0.21319197118282318,0.2376265823841095
1789156619917538300,7.567538330078125,-0.23396138846874237,-0.23029619455337524,-0.3390302062034607
1789156619977474800,7.627474853515625,0.01771509274840355,0.394008070230484,-0.17104226350784302
1789156620037441800,7.68744189453125,0.08552113175392151,-0.2724458873271942,0.25473082065582275
1789156620097408800,7.74740869140625,0.15332718193531036,0.14538592100143433,-0.04398229718208313
1789156620157345300,7.80734521484375,0.048258353024721146,-0.07696902006864548,-0.05009094998240471
1789156620217312500,7.8673125,0.11301007121801376,0.042760565876960754,-0.07269296050071716
1789156620277279500,7.927279541015625,0.08185594528913498,-0.03298672288656235,0.14294247329235077
1789156620337246500,7.98724658203125,-0.03481931984424591,-0.4153883755207062,-0.09224065393209457
1789156620397183000,8.047182861328125,-0.004886921960860491,0.2474004179239273,-0.00855211354792118
1789156620457119500,8.107119384765625,-0.44287729263305664,-0.6029239892959595,-0.23518311977386475
1789156620517025500,8.167025634765626,-0.637132465839386,-0.022602014243602753,-0.5552765130996704
1789156620576962000,8.226962158203126,-0.1612684279680252,-0.15271630883216858,-0.05009094998240471
1789156620636868000,8.2868681640625,-0.05253441259264946,-0.11362093687057495,0.11239920556545258
1789156620696835000,8.3468349609375,-0.1466076523065567,-0.16798794269561768,0.04581489413976669
1789156620756771600,8.406771484375,-0.17592918872833252,-0.05742133408784866,-0.13561208546161652
1789156620816677600,8.466677734375,-0.028099801391363144,-0.0403171069920063,0.03176499158143997
1789156620876614100,8.5266142578125,0.16982053220272064,-0.030543262138962746,0.01038470957428217
1789156620936581000,8.5865810546875,0.39156460762023926,0.4056145250797272,0.20097467303276062
1789156620996548400,8.64654833984375,0.07635815441608429,-0.36713001132011414,-0.3090978264808655
1789156621056515300,8.706515380859376,0.7177666425704956,0.4502076804637909,0.15760323405265808
1789156621116390700,8.766390625,0.3243694305419922,-0.15454891324043274,0.1869247704744339
1789156621176358000,8.82635791015625,0.5210680365562439,0.2021963894367218,-0.01771509274840355
1789156621276302800,8.926302734375,0.2877175211906433,0.013439035043120384,0.25045475363731384
1789156621336239400,8.9862392578125,0.08857546001672745,-0.05742133408784866,0.11239920556545258
1789156621396145400,9.0461455078125,-0.18020524084568024,-0.17409659922122955,0.054367005825042725
1789156621536038000,9.186037841796875,-0.7635815739631653,-0.003054326167330146,-0.5320636034011841
1789156621595974400,9.245974365234375,-0.3536909818649292,-0.014049900695681572,-0.6511823534965515
1789156621655911000,9.305910888671875,-0.007941247895359993,0.19120082259178162,0.3286454975605011
1789156621715878100,9.365878173828126,-0.22663100063800812,-0.05803219974040985,0.13500121235847473
1789156621775814700,9.425814697265626,-0.2064724564552307,-0.07452555745840073,-0.03298672288656235
1789156621835720700,9.485720703125,-0.1258382350206375,-0.06658431142568588,0.12400564551353455
1789156621895687700,9.545687744140626,0.08552113175392151,0.018936822190880775,-0.182648703455925
1789156621955593700,9.60559375,0.24923302233219147,0.740368664264679,-0.056810468435287476
1789156622015560700,9.665560791015626,0.23579397797584534,-0.09040805697441101,-0.7855727076530457
1789156622075527700,9.725527587890625,0.2687807083129883,0.6035348773002625,0.08796459436416626
1789156622135464200,9.785464111328125,0.46364670991897583,-0.44776421785354614,0.19303341209888458
1789156622195431200,9.84543115234375,0.3023782968521118,-0.09224065393209457,0.18570303916931152
1789156622255398400,9.9053984375,0.2535090744495392,0.06841690838336945,0.2987131178379059
1789156622315304400,9.965304443359376,0.7446447610855103,0.13927727937698364,0.15760323405265808
1789156622375271400,10.025271484375,0.22663100063800812,-0.1875356286764145,0.21441370248794556
1789156622435177500,10.085177490234376,0.031154127791523933,-0.303600013256073,0.12889257073402405
1789156622495114000,10.145114013671876,-0.16982053220272064,0.2217440903186798,-0.06352998316287994
1789156622555081000,10.2050810546875,-1.0018190145492554,-0.8533787727355957,-0.7037167549133301
1789156622614987000,10.264987060546876,-0.04214970022439957,0.4893030524253845,-0.17104226350784302
1789156622674954000,10.3249541015625,0.1716531366109848,-0.08307767659425735,0.5167919993400574
1789156622734921000,10.3849208984375,-0.07147123664617538,0.19120082259178162,0.3127630054950714
1789156622794857000,10.44485693359375,-0.07208210229873657,0.1270599663257599,0.2528982162475586
1789156622914730000,10.56472998046875,-0.11423180252313614,0.21502456068992615,-0.12339477986097336
1789156622974636000,10.624635986328125,0.19425514340400696,-0.19914206862449646,-0.23579397797584534
1789156623034572500,10.684572509765625,0.4911356568336487,0.1459967941045761,0.14416420459747314
1789156623094539800,10.744539794921875,-0.07330382615327835,-0.05803219974040985,-0.21930062770843506
1789156623154476300,10.804476318359375,0.18081611394882202,0.21807889640331268,-0.2968805134296417
1789156623214382000,10.864382080078125,0.031154127791523933,-0.1814269721508026,-0.2376265823841095
1789156623274349300,10.924349365234375,-0.012217304669320583,-0.009162978269159794,-0.07391469180583954
1789156623334255400,10.98425537109375,0.06902777403593063,-0.26633724570274353,0.04703662544488907
1789156623394192000,11.04419189453125,0.03176499158143997,-0.2883284091949463,-0.025045474991202354
1789156623454128400,11.10412841796875,-0.20891591906547546,-0.1765400618314743,0.03176499158143997
1789156623514065000,11.16406494140625,-0.35185837745666504,0.0555887371301651,0.00427605677396059
1789156623574032000,11.224031982421875,-0.6627888083457947,-0.16065755486488342,-0.252287358045578
1789156623633968400,11.283968505859375,-0.7391469478607178,0.252287358045578,-0.375071257352829
1789156623693905000,11.34390478515625,-0.5174028873443604,-0.018936822190880775,-0.18631389737129211
1789156623793758500,11.443758544921875,-0.11972958594560623,0.036041051149368286,0.1820378452539444
1789156623853664500,11.50366455078125,-0.2571742534637451,-0.13439035415649414,0.30115658044815063
1789156623913601000,11.56360107421875,-0.1869247704744339,-0.08002334833145142,-0.15393804013729095
1789156623973568000,11.623568115234375,-0.05314527451992035,0.14294247329235077,-0.1722639948129654
1789156624033535000,11.683534912109375,0.3445279896259308,0.05009094998240471,0.013439035043120384
1789156624093471500,11.743471435546875,0.5222898125648499,0.1508837193250656,0.2541199326515198
1789156624153377500,11.80337744140625,0.19120082259178162,0.24923302233219147,-0.45265114307403564
1789156624273281000,11.923281005859375,0.18936823308467865,-0.37629300355911255,0.3597996234893799
1789156624333248300,11.983248291015625,0.20830504596233368,0.16432274878025055,-0.05009094998240471
1789156624393154000,12.043154052734375,0.18936823308467865,-0.13255776464939117,-0.04337143152952194
1789156624453121300,12.103121337890625,0.15027284622192383,-0.0354301854968071,0.152105450630188
1789156624513057800,12.163057861328125,0.15332718193531036,-0.18814650177955627,0.19364428520202637
1789156624573024800,12.223024658203125,-0.0012217304902151227,0.003054326167330146,0.2376265823841095
1789156624632991700,12.28299169921875,-0.11789698898792267,0.17592918872833252,0.024434609338641167
1789156624692959000,12.342958984375,-0.5607742667198181,0.025656340643763542,-0.18387043476104736
1789156624752926000,12.402926025390625,-0.25473082065582275,0.20586158335208893,-0.2724458873271942
1789156624812893000,12.462892822265625,-0.08735372871160507,-0.16798794269561768,0.1765400618314743
1789156624872829400,12.522829345703125,-0.016493361443281174,0.07147123664617538,0.30482175946235657
1789156624932796400,12.58279638671875,-0.1875356286764145,-0.14905111491680145,0.11850785464048386
1789156624992733000,12.64273291015625,-0.18814650177955627,0.07880161702632904,-0.1618792861700058
1789156625052700200,12.7027001953125,0.05803219974040985,-0.00733038317412138,-0.06658431142568588
1789156625112575500,12.762575439453125,0.7544185519218445,0.4178318381309509,0.3029891550540924
1789156625172512000,12.822511962890625,0.808174729347229,0.18570303916931152,0.455705463886261
1789156625232448500,12.882448486328125,0.27000242471694946,-0.06963863968849182,-0.24617868661880493
1789156625292354600,12.9423544921875,0.36713001132011414,0.6139195561408997,-0.2773328125476837
1789156625352321500,13.002321533203125,-0.1215621829032898,-0.20402899384498596,-0.21563543379306793
1789156625412258000,13.062258056640625,0.024434609338641167,0.04886921867728233,-0.3891211748123169
1789156625472194800,13.12219482421875,0.1716531366109848,-0.07269296050071716,0.03481931984424591
1789156625532131300,13.18213134765625,-0.05864306539297104,-0.45631635189056396,0.08002334833145142
1789156625592098300,13.242098388671875,0.1722639948129654,-0.14477506279945374,-0.08491026610136032
1789156625652034800,13.302034912109375,-0.20463985204696655,-0.06719517707824707,0.33292156457901
1789156625712001800,13.362001708984375,-0.1417207419872284,0.33475416898727417,0.3677408695220947
1789156625771907800,13.421907958984375,-0.8741481900215149,-0.05009094998240471,-0.45631635189056396
1789156625831874800,13.481874755859375,0.00855211354792118,0.636521577835083,-1.0115928649902344
1789156625891811300,13.541811279296875,0.1765400618314743,0.21074850857257843,-0.3488040566444397
1789156625951717400,13.60171728515625,-0.45142942667007446,-0.6047565937042236,0.8723155856132507
1789156626071620900,13.721620849609375,-0.05803219974040985,-0.056810468435287476,-0.3286454975605011
1789156626131588000,13.781588134765625,-0.03726277872920036,0.13500121235847473,-0.2840523421764374
1789156626231533000,13.881532958984375,0.4190535545349121,0.152105450630188,0.18936823308467865
1789156626291469600,13.941469482421875,-0.012828170321881771,-0.24068090319633484,-0.2015855312347412
1789156626351375600,14.001375732421875,0.5687155723571777,0.7312057018280029,-0.33047810196876526
1789156626411281700,14.06128173828125,0.4239404797554016,-0.40072759985923767,0.413555771112442
1789156626471248600,14.12124853515625,0.2583959996700287,0.1417207419872284,0.08491026610136032
1789156626531154700,14.18115478515625,0.1270599663257599,-0.08185594528913498,-0.11178833991289139
1789156626631099600,14.281099609375,-0.005497787147760391,-0.27977627515792847,0.34697145223617554
1789156626691005700,14.341005615234375,-0.16371189057826996,-0.12889257073402405,0.2028072625398636
1789156626750942200,14.400942138671875,-0.2889392673969269,-0.21319197118282318,0.01771509274840355
1789156626850856700,14.500856689453125,-0.5626068711280823,-0.24862214922904968,-0.2382374405860901
1789156626910824000,14.560823974609375,-0.5064072608947754,0.06841690838336945,-0.3927863538265228
1789156626970729700,14.620729736328125,-0.4917465150356293,-0.04214970022439957,-0.018936822190880775
1789156627070675000,14.720675048828125,-0.3536909818649292,-0.03420845419168472,0.012828170321881771
1789156627130642000,14.780641845703125,-0.34208452701568604,-0.14416420459747314,0.00427605677396059
1789156627230587100,14.880587158203125,-0.11667526513338089,-0.11789698898792267,-0.26083946228027344
1789156627290554000,14.94055419921875,0.17409659922122955,0.3182607889175415,-0.06902777403593063
1789156627390499000,15.0404990234375,0.16249015927314758,0.29016098380088806,-0.34758231043815613
1789156627450466000,15.100466064453125,0.3628539443016052,-0.3396410644054413,0.05009094998240471
1789156627510433300,15.160433349609375,0.10751228034496307,0.1814269721508026,-0.02626720629632473
1789156627570339300,15.22033935546875,0.23579397797584534,-0.1722639948129654,0.16310101747512817
1789156627630306300,15.280306396484375,0.17043140530586243,-0.013439035043120384,0.22663100063800812
1789156627690242800,15.340242919921875,0.04948008432984352,-0.31520646810531616,0.11850785464048386
1789156627750209800,15.400209716796875,-0.056810468435287476,-0.26939156651496887,0.17837265133857727
1789156627810138600,15.460138671875,-0.27061331272125244,-0.1508837193250656,-0.03176499158143997
1789156627870075100,15.5200751953125,-0.5974262356758118,-0.16371189057826996,-0.3188716471195221
1789156627930011600,15.58001171875,-0.4703662395477295,0.2015855312347412,-0.5528330206871033
1789156627989979000,15.639978759765626,-0.14782938361167908,-0.07513642311096191,-0.0006108652451075613
1789156628049915400,15.699915283203126,0.012828170321881771,0.009773843921720982,-0.0403171069920063
1789156628109852000,15.759851806640626,-0.08307767659425735,-0.003054326167330146,0.1973094791173935
1789156628169758000,15.819758056640625,-0.08918632566928864,-0.051312681287527084,-0.08124507963657379
1789156628229663700,15.879663818359376,0.00733038317412138,0.0555887371301651,0.022602014243602753
1789156628289631000,15.939630859375,0.16554448008537292,0.06475171446800232,-0.00733038317412138
1789156628349536800,15.999536865234376,0.3927863538265228,0.4642575979232788,-0.09285151958465576
1789156628409504000,16.05950390625,0.07391469180583954,-0.22296582162380219,-0.6646214127540588
1789156628469471000,16.119470947265626,0.5552765130996704,0.43127086758613586,-0.059864792972803116
1789156628529407500,16.179407470703126,0.3396410644054413,-0.2528982162475586,0.242513507604599
1789156628589344000,16.239343994140626,0.20952677726745605,-0.025656340643763542,-0.0861319974064827
1789156628649311000,16.29931103515625,0.23396138846874237,0.04214970022439957,0.33475416898727417
1789156628709247500,16.35924755859375,0.12950342893600464,-0.3591887652873993,0.09834930300712585
1789156628769184000,16.41918408203125,0.05864306539297104,-0.13439035415649414,0.14355333149433136
1789156628829120500,16.47912060546875,-0.17409659922122955,0.025656340643763542,0.09224065393209457
1789156628889026600,16.539026611328126,-0.48380526900291443,-0.24678955972194672,-0.24923302233219147
1789156628948963000,16.598963134765626,-0.816726803779602,0.4398229718208313,-0.46181413531303406
1789156629008869000,16.658869140625,-0.0012217304902151227,0.006719517521560192,0.021380282938480377
1789156629068805600,16.7188056640625,0.013439035043120384,0.10445795953273773,0.0708603709936142
1789156629128742100,16.7787421875,0.04214970022439957,-0.04153883829712868,0.13500121235847473
1789156629188648200,16.838648193359376,-0.027488935738801956,-0.01710422709584236,0.02626720629632473
1789156629248584700,16.898584716796876,-0.08735372871160507,-0.007941247895359993,0.08246681094169617
1789156629308490800,16.95849072265625,0.0659734457731247,0.16004669666290283,0.04764748737215996
1789156629368427300,17.01842724609375,0.35613444447517395,0.4056145250797272,0.27061331272125244
1789156629428363800,17.07836376953125,-0.1014036312699318,-0.2791654169559479,-0.4648684561252594
1789156629488300300,17.13830029296875,0.43737950921058655,0.6774495840072632,-0.14294247329235077
1789156629548236800,17.19823681640625,0.2070833146572113,-0.4349360466003418,0.13561208546161652
1789156629648090400,17.29809033203125,0.31520646810531616,-0.10018189996480942,0.3628539443016052
1789156629708057300,17.358057373046876,0.18570303916931152,-0.15943582355976105,0.32498031854629517
1789156629767993900,17.417993896484376,0.051312681287527084,-0.16982053220272064,0.08185594528913498
1789156629827930400,17.477930419921876,-0.14355333149433136,-0.32620203495025635,0.14538592100143433
1789156629887867000,17.537866943359376,-0.19975294172763824,0.2724458873271942,0.11911872029304504
1789156629947803400,17.597803466796876,-0.7244861721992493,-0.4502076804637909,-0.5387831330299377
1789156630007709400,17.65770947265625,-0.7183775305747986,0.45814892649650574,-0.43737950921058655
1789156630067646000,17.71764599609375,-0.23335053026676178,-0.17470745742321014,0.1569923609495163
1789156630127613200,17.77761328125,-0.36102136969566345,0.04459316283464432,-0.12522737681865692
1789156630187519000,17.83751904296875,-0.2168571650981903,-0.1111774742603302,0.12339477986097336
1789156630247486200,17.897486328125,-0.17104226350784302,-0.2064724564552307,-0.022602014243602753
1789156630307422700,17.957422607421876,-0.09834930300712585,0.03420845419168472,-0.060475658625364304
1789156630367389700,18.0173896484375,0.23151792585849762,0.13500121235847473,-0.09468411654233932
1789156630427326200,18.077326171875,0.23151792585849762,0.9034696817398071,0.05314527451992035
1789156630487293200,18.137293212890626,0.10873401165008545,0.012217304669320583,-0.49357911944389343
1789156630547260200,18.19726025390625,0.6737843751907349,-0.29626965522766113,0.7244861721992493
1789156630607196700,18.25719677734375,0.23640485107898712,0.11484266817569733,0.2021963894367218
1789156630667072300,18.317072265625,0.24678955972194672,-0.13988813757896423,0.23884831368923187
1789156630727008800,18.3770087890625,0.15454891324043274,0.02687807008624077,0.34697145223617554
1789156630786975700,18.436975830078126,0.13439035415649414,-0.23457226157188416,0.10323622822761536
1789156630846943000,18.49694287109375,-0.07819075137376785,-0.21624629199504852,0.152105450630188
1789156630906879500,18.55687939453125,-0.15882496535778046,-0.17043140530586243,-0.06780604273080826
1789156630966846500,18.616846435546876,-0.3585779070854187,-0.21319197118282318,-0.313373863697052
1789156631026752500,18.67675244140625,-0.645684540271759,0.08368854224681854,-0.6499606370925903
1789156631086719500,18.736719482421876,-0.12095131725072861,0.00366519158706069,-0.08368854224681854
1789156631146625500,18.79662548828125,-0.08429940044879913,0.08307767659425735,0.021380282938480377
1789156631206531600,18.856531494140626,-0.02932153269648552,-0.03237585723400116,0.21441370248794556
1789156631266468000,18.916468017578126,-0.19975294172763824,0.027488935738801956,-0.07208210229873657
1789156631326435000,18.97643505859375,-0.1313360333442688,-0.04214970022439957,-0.10018189996480942
1789156631386371600,19.03637158203125,0.03176499158143997,-0.08185594528913498,-0.1875356286764145
1789156631446308000,19.09630810546875,0.3585779070854187,0.24007004499435425,0.01710422709584236
1789156631506244600,19.15624462890625,0.2168571650981903,-0.4031710624694824,-0.1612684279680252
1789156631566211600,19.216211669921876,0.43188172578811646,0.6407976150512695,-0.14844025671482086
1789156631626178800,19.2761787109375,0.3549126982688904,-0.24007004499435425,0.2883284091949463
1789156631686115300,19.336115234375,0.2974913716316223,0.2125810980796814,-0.19792033731937408
1789156631746051800,19.3960517578125,0.28649580478668213,0.07941248267889023,0.18448130786418915
1789156631805958000,19.4559580078125,0.31093040108680725,-0.15577064454555511,0.26022860407829285
1789156631865863700,19.51586376953125,0.182648703455925,-0.15027284622192383,0.1417207419872284
1789156631925831000,19.575830810546876,0.025045474991202354,-0.3842342495918274,0.12461651116609573
1789156631985798000,19.6357978515625,-0.0659734457731247,0.32070425152778625,-0.12400564551353455
1789156632045734400,19.695734375,-0.7611380815505981,-0.35735616087913513,-0.8729264140129089
1789156632105671000,19.7556708984375,-0.3988949954509735,0.3188716471195221,-0.09896016865968704
1789156632165577000,19.815576904296876,-0.1362229436635971,0.08674286305904388,0.3677408695220947
1789156632225483000,19.87548291015625,-0.19120082259178162,0.11301007121801376,0.22479841113090515
1789156632285450000,19.935449951171876,-0.20402899384498596,0.021991148591041565,0.182648703455925
1789156632345386500,19.995386474609376,-0.23457226157188416,-0.03176499158143997,-0.13377949595451355
1789156632405353500,20.055353515625,-0.09896016865968704,-0.10018189996480942,-0.23151792585849762
1789156632465290000,20.1152900390625,0.10323622822761536,-0.12278391420841217,-0.1765400618314743
1789156632525226500,20.1752265625,0.26939156651496887,0.23457226157188416,0.014049900695681572
1789156632585163000,20.2351630859375,-0.2278527319431305,-0.039095375686883926,-0.6200281977653503
1789156632645130200,20.295130126953126,0.5271766781806946,0.41111230850219727,-0.18081611394882202
1789156632705066800,20.355066650390626,0.6530149579048157,-0.36590829491615295,0.34636059403419495
1789156632764972800,20.414972900390627,0.588263213634491,0.12278391420841217,-0.12034045159816742
1789156632824909300,20.474909423828127,0.5265658497810364,-0.00427605677396059,0.22113321721553802
1789156632884859000,20.53485888671875,0.48747047781944275,-0.06658431142568588,0.26022860407829285
1789156632944795400,20.59479541015625,0.2968805134296417,-0.013439035043120384,0.12217304855585098
1789156633004732200,20.654732177734374,0.05619960278272629,-0.23457226157188416,0.15760323405265808
1789156633064699100,20.71469921875,-0.3274237811565399,0.44837507605552673,0.019547687843441963
1789156633124635600,20.7746357421875,-0.6786713004112244,-0.3933972120285034,0.22602014243602753
1789156633184572200,20.834572265625,-0.23273965716362,0.3646865487098694,-0.06902777403593063
1789156633304414700,20.954414794921874,0.13011430203914642,-0.19058994948863983,-0.09407325088977814
1789156633364320800,21.01432080078125,0.08307767659425735,0.2070833146572113,0.12889257073402405
1789156633424287700,21.074287841796874,0.30604347586631775,-0.21380282938480377,-0.06291911751031876
1789156633484224300,21.134224365234374,0.29504790902137756,0.07269296050071716,-0.14905111491680145
1789156633544130300,21.19413037109375,0.9083566069602966,0.25595253705978394,0.06352998316287994
1789156633604066800,21.25406689453125,1.2907582521438599,0.4758640229701996,0.17043140530586243
1789156633664003300,21.31400341796875,1.0225883722305298,0.10995574295520782,-0.5424483418464661
1789156633723970300,21.37397021484375,1.9578231573104858,0.33719760179519653,-0.018936822190880775
1789156633783937300,21.433937255859377,1.585806131362915,0.4141666293144226,0.30482175946235657
1789156633843904500,21.493904541015624,1.6475036144256592,0.5650503635406494,0.02076941914856434
1789156633903779800,21.55377978515625,1.380555510520935,0.5503895878791809,0.39706242084503174
1789156633963686000,21.613685791015627,1.2577714920043945,0.07024950534105301,0.12034045159816742
1789156634023592000,21.673592041015624,0.8362745046615601,0.33719760179519653,0.26083946228027344
1789156634083559000,21.733558837890627,0.5161811113357544,0.23029619455337524,-0.06108652427792549
1789156634143495400,21.793495361328127,0.5632177591323853,0.5870414972305298,-0.33719760179519653
1789156634203462400,21.85346240234375,-0.1215621829032898,0.8008443117141724,-0.4990769028663635
1789156634263429600,21.9134296875,0.608421802520752,0.42210787534713745,0.02626720629632473
1789156634323396600,21.973396728515624,0.6988298296928406,0.4398229718208313,0.001832595793530345
1789156634383302700,22.033302734375,0.7929030656814575,0.32131510972976685,0.13805554807186127
1789156634443239200,22.0932392578125,0.769079327583313,0.2272418737411499,-0.033597588539123535
1789156634543092700,22.1930927734375,0.6798930168151855,0.3243694305419922,0.07757988572120667
1789156634603029200,22.253029296875,0.7195992469787598,0.5479460954666138,0.04398229718208313
1789156634662935000,22.31293505859375,1.0195341110229492,0.5546656250953674,0.06475171446800232
1789156634722871800,22.372871826171874,0.7562511563301086,0.3188716471195221,-0.4196644127368927
1789156634782838800,22.4328388671875,1.282817006111145,0.12095131725072861,0.04948008432984352
1789156634842744800,22.492744873046874,0.7910705208778381,0.2474004179239273,0.024434609338641167
1789156634902620200,22.5526201171875,0.8851437568664551,0.16065755486488342,-0.12095131725072861
1789156634982576400,22.632576416015624,0.8338310718536377,-0.02932153269648552,0.051312681287527084
1789156635042451700,22.69245166015625,0.7055493593215942,-0.08796459436416626,0.13500121235847473
1789156635122346800,22.7723466796875,0.3243694305419922,-0.14294247329235077,0.00427605677396059
1789156635182283300,22.832283203125,-0.01771509274840355,0.09224065393209457,-0.2528982162475586
1789156635242189300,22.892189208984377,-1.0977247953414917,-0.4398229718208313,-0.5809328556060791
1789156635302125800,22.952125732421877,-0.5375614166259766,0.4789183437824249,-0.7654141783714294
1789156635362031900,23.012031982421874,-0.33536502718925476,0.07513642311096191,-0.15393804013729095
1789156635421968400,23.071968505859374,0.05253441259264946,0.3023782968521118,0.4202753007411957
1789156635481905000,23.13190478515625,0.04459316283464432,0.0507018156349659,0.342695415019989
1789156635541841400,23.19184130859375,-0.02321287989616394,-0.3243694305419922,0.3488040566444397
1789156635601778000,23.25177783203125,0.0012217304902151227,-0.4917465150356293,0.28527405858039856
1789156635661745000,23.311744873046877,0.4282165467739105,-0.03726277872920036,0.14782938361167908
1789156635761629000,23.41162890625,0.3090978264808655,0.14966198801994324,-0.342695415019989
1789156635821596200,23.47159619140625,0.7489207983016968,0.6255260109901428,0.10018189996480942
1789156635921480200,23.571480224609374,0.32498031854629517,0.6530149579048157,-0.34636059403419495
1789156635981416700,23.631416748046874,0.5076290369033813,0.018325956538319588,0.16982053220272064
1789156636041353200,23.691353271484374,0.3017674386501312,0,0.5222898125648499
1789156636141237200,23.7912373046875,-0.11239920556545258,-0.21624629199504852,0.11972958594560623
1789156636201173800,23.851173828125,0.006719517521560192,0.06352998316287994,0.33047810196876526
1789156636261079800,23.911079833984374,-0.7470881938934326,-0.31154128909111023,-0.4660901725292206
1789156636321046800,23.971046875,-0.5845980644226074,0.6517932415008545,-0.3481931984424591
1789156636380983300,24.0309833984375,-0.04642575979232788,-0.05375614017248154,0.23151792585849762
1789156636440950300,24.0909501953125,-0.18387043476104736,0.21868975460529327,-0.10018189996480942
1789156636500917200,24.150917236328127,-0.23273965716362,0.059864792972803116,-0.13805554807186127
1789156636560853800,24.210853759765627,-0.01466076634824276,0.17898350954055786,0.4294382631778717
1789156636620821000,24.270821044921874,-0.07147123664617538,-0.1215621829032898,0.0861319974064827
1789156636680757500,24.330757568359374,0,0.36102136969566345,-0.5198463201522827
1789156636740694000,24.390694091796874,0.5705481171607971,0.4239404797554016,-0.4862487316131592
1789156636840639000,24.490638916015627,0.42760565876960754,0.403781920671463,0.07147123664617538
1789156636900606000,24.55060595703125,0.18081611394882202,-0.38606682419776917,0.05742133408784866
1789156636960542500,24.61054248046875,-0.059864792972803116,0.13927727937698364,-0.09834930300712585
1789156637020418000,24.67041796875,0.08674286305904388,-0.0403171069920063,0.054367005825042725
1789156637080354600,24.7303544921875,0.1368338167667389,-0.30115658044815063,0.3176499307155609
1789156637140291000,24.790291015625,0.04214970022439957,-0.27977627515792847,0.17287486791610718
1789156637200197000,24.850197021484377,-0.14416420459747314,-0.40622538328170776,0.0555887371301651
1789156637260133600,24.910133544921877,-0.0959058403968811,0.3072652220726013,0.04214970022439957
1789156637320039700,24.970039794921874,-0.6053674817085266,-0.2675589919090271,-0.29626965522766113
1789156637380006700,25.030006591796877,-0.749531626701355,0.313373863697052,-0.37201693654060364
1789156637439912700,25.08991259765625,-0.19853121042251587,0.00855211354792118,0.07757988572120667
1789156637499818800,25.14981884765625,-0.14966198801994324,0.02932153269648552,0.2987131178379059
1789156637559785700,25.20978564453125,-0.36224308609962463,-0.012828170321881771,-0.01160643994808197
1789156637619722200,25.26972216796875,-0.32009339332580566,-0.060475658625364304,-0.11850785464048386
1789156637679658800,25.32965869140625,-0.21868975460529327,-0.16004669666290283,-0.025045474991202354
1789156637739625700,25.389625732421877,0.1661553531885147,0.0555887371301651,0.022602014243602753
1789156637799593000,25.449593017578124,0.7220427393913269,0.4404338300228119,0.23579397797584534
1789156637859529500,25.509529541015624,0.1472185254096985,-0.18081611394882202,-0.6096435189247131
1789156637919444200,25.5694443359375,0.8998045325279236,-0.10690141469240189,0.18570303916931152
1789156637979319800,25.62931982421875,0.36651915311813354,0.08185594528913498,0.3988949954509735
1789156638039286800,25.689286865234376,0.3292563557624817,0.14049901068210602,0.19364428520202637
1789156638099223300,25.749223388671876,0.26450464129447937,0.09834930300712585,0.4343251883983612
1789156638159190500,25.8091904296875,0.0555887371301651,-0.7531968355178833,0.24373523890972137
1789156638219127000,25.869126953125,0.38728857040405273,-0.44287729263305664,0.4489859640598297
1789156638279032800,25.92903271484375,-0.10812314599752426,-0.3280346393585205,0.44287729263305664
1789156638338969600,25.988969482421876,-0.6811147332191467,0.18387043476104736,-0.2938261926174164
1789156638398936600,26.0489365234375,-1.084285855293274,0.43676865100860596,-0.8222246170043945
1789156638458842600,26.108842529296876,-0.5485569834709167,-0.05253441259264946,0.04948008432984352
1789156638518748400,26.16874853515625,-0.2168571650981903,-0.2528982162475586,0.18570303916931152
1789156638578685000,26.228684814453125,-0.09712757170200348,0.16371189057826996,0.3695734739303589
1789156638638652200,26.288652099609376,-0.14477506279945374,0.018936822190880775,0.1007927656173706
1789156638698619100,26.348619140625,-0.04948008432984352,0.12950342893600464,-0.029932396486401558
1789156638758586000,26.408586181640626,-0.08735372871160507,-0.31154128909111023,-0.04337143152952194
1789156638818522600,26.468522705078126,0.21502456068992615,0.9089674949645996,-0.09651670604944229
1789156638878489900,26.52848974609375,0.016493361443281174,-0.6133087277412415,-0.901637077331543
1789156638938456800,26.588456787109376,0.2883284091949463,0.6701191663742065,-0.04337143152952194
1789156638998393300,26.648393310546876,0.3903428912162781,-0.4129449129104614,-0.18448130786418915
1789156639058299400,26.70829931640625,0.16310101747512817,0.29626965522766113,0.12034045159816742
1789156639118205400,26.768205322265626,0.13744467496871948,-0.18631389737129211,0.06352998316287994
1789156639178142000,26.828141845703126,0.06169738993048668,-0.41111230850219727,0.2883284091949463
1789156639238078500,26.888078369140626,0.027488935738801956,-0.3799581825733185,0.3897320330142975
1789156639298045400,26.94804541015625,-0.22296582162380219,0.15577064454555511,0.21013765037059784
1789156639358012400,27.008012451171876,-0.20586158335208893,-0.17470745742321014,-0.1472185254096985
1789156639417918500,27.06791845703125,-0.826500654220581,0.4954117238521576,-0.8735373020172119
1789156639477885400,27.127885498046876,-0.07147123664617538,-0.07757988572120667,-0.2871066629886627
1789156639537791500,27.18779150390625,-0.14538592100143433,0.04214970022439957,0.24862214922904968
1789156639597728000,27.24772802734375,-0.182648703455925,-0.15882496535778046,0.05375614017248154
1789156639657664500,27.30766455078125,-0.0708603709936142,0.04642575979232788,0.3885102868080139
1789156639757548500,27.407548583984376,-0.14294247329235077,-0.19058994948863983,-0.24617868661880493
1789156639817515500,27.467515625,-0.056810468435287476,-0.46670106053352356,-0.07024950534105301
1789156639877452000,27.5274521484375,0.5797111392021179,0.5186246037483215,0.34636059403419495
1789156639937388500,27.587388427734375,0.2321287989616394,0.6878342628479004,-0.7550294399261475
1789156639997355800,27.647355712890626,0.6261368989944458,-0.13805554807186127,0.006108652334660292
1789156640057261800,27.70726171875,0.6438519954681396,0.2076941877603531,0.43127086758613586
1789156640117167600,27.767167724609376,0.21868975460529327,-0.24984388053417206,0.2974913716316223
1789156640177104100,27.827104248046876,0.24434609711170197,-0.042760565876960754,0.38240164518356323
1789156640237071400,27.8870712890625,0.03420845419168472,-0.37262779474258423,0.4544837474822998
1789156640296977400,27.946977294921876,-0.0024434609804302454,-0.16249015927314758,0.06841690838336945
1789156640356914000,28.006913818359376,-0.11239920556545258,0.23090706765651703,-0.09040805697441101
1789156640416819700,28.06681982421875,-0.7122688889503479,-0.46853363513946533,-0.6346889734268188
1789156640476756200,28.126756103515625,-0.2278527319431305,-0.07696902006864548,0.016493361443281174
1789156640536723500,28.186723388671876,-0.48380526900291443,-0.036041051149368286,-0.5717698931694031
1789156640596660000,28.246659912109376,-0.4502076804637909,0.14233160018920898,-0.13377949595451355
1789156640656627000,28.306626953125,-0.2767219543457031,0.06169738993048668,0.31093040108680725
1789156640716533000,28.366532958984376,-0.09162978827953339,-0.05192354694008827,-0.08857546001672745
1789156640776469500,28.426469482421876,-0.17898350954055786,-0.15027284622192383,0.23090706765651703
1789156640836436500,28.4864365234375,0.009773843921720982,-0.20097467303276062,-0.11362093687057495
1789156640896373000,28.546373046875,0.4593706727027893,0.14966198801994324,-0.16371189057826996
1789156640956279000,28.606279052734376,0.5076290369033813,0.4948008358478546,-0.2828305959701538
1789156641016246000,28.66624609375,0.7715228199958801,-0.06902777403593063,0.35674530267715454
1789156641076152000,28.726152099609376,0.403781920671463,0.4251621961593628,0.3390302062034607
1789156641136088600,28.786088623046876,0.3084869384765625,0.19792033731937408,0.1270599663257599
1789156641196055600,28.8460556640625,0.242513507604599,-0.14905111491680145,0.36590829491615295
1789156641256022800,28.906022705078126,0.06963863968849182,-0.5412266254425049,0.24617868661880493
1789156641315928800,28.9659287109375,-0.323147714138031,-0.25961771607398987,-0.015882495790719986
1789156641375895800,29.025895751953126,-0.37201693654060364,0.013439035043120384,-0.13927727937698364
1789156641435832300,29.085832275390626,-1.4117095470428467,-0.28038713335990906,-1.2052371501922607
1789156641495768800,29.145768798828126,-0.16859880089759827,0.47219884395599365,-0.29993483424186707
1789156641555705300,29.205705322265626,-0.10323622822761536,-0.192422553896904,0.09773843735456467
1789156641615641900,29.265641845703126,-0.00855211354792118,-0.03726277872920036,-0.23518311977386475
1789156641675578400,29.325578369140626,0.051312681287527084,-0.13316862285137177,0.06169738993048668
1789156641735515000,29.385514892578126,0.08002334833145142,-0.14049901068210602,0.1319468915462494
1789156641795451400,29.445451416015626,0.12461651116609573,-0.20586158335208893,0.01466076634824276
1789156641855449000,29.505448974609376,0.3854559659957886,0.5204572081565857,0.07330382615327835
1789156641915324400,29.565324462890626,0.46303585171699524,0.1508837193250656,0.03787364438176155
1789156641975291400,29.62529150390625,0.4954117238521576,0.7360926270484924,-0.26511552929878235
1789156642075145000,29.72514501953125,0.24556782841682434,0.1368338167667389,-0.08674286305904388
1789156642135112000,29.78511181640625,0.26083946228027344,-0.08491026610136032,-0.012828170321881771
1789156642195018000,29.84501806640625,0.39767327904701233,-0.06719517707824707,0.6133087277412415
1789156642254985200,29.904985107421876,0.34086281061172485,-0.9663888216018677,0.3292563557624817
1789156642314891000,29.96489111328125,-0.06475171446800232,-0.06169738993048668,0.09040805697441101
1789156642374858200,30.024858154296876,-0.3836233615875244,-0.04886921867728233,-0.31581732630729675
1789156642434825200,30.0848251953125,-1.1136072874069214,0.00733038317412138,-0.6206390857696533
1789156642494761700,30.14476171875,-0.41111230850219727,0.5259549617767334,-0.07269296050071716
1789156642554667800,30.204667724609376,-0.37690386176109314,0.11911872029304504,0.1716531366109848
1789156642614604300,30.264604248046876,-0.3878994286060333,0.0708603709936142,-0.6108652353286743
1789156642674510300,30.32451025390625,-0.2217440903186798,0.23273965716362,-0.07452555745840073
1789156642734446800,30.38444677734375,0.04703662544488907,-0.09040805697441101,0.08552113175392151
1789156642794413800,30.444413818359376,0.08185594528913498,0.10506882518529892,-0.2590068578720093
1789156642854380800,30.504380859375,0.251676470041275,-0.010995574295520782,0.05009094998240471
1789156642914364700,30.56436474609375,0.7489207983016968,0.2535090744495392,0.3090978264808655
1789156642974331600,30.62433154296875,0.2064724564552307,0.32620203495025635,-0.19425514340400696
1789156643034268200,30.68426806640625,0.988990843296051,-0.16371189057826996,0.2321287989616394
1789156643094174200,30.74417431640625,0.2669481039047241,0.22113321721553802,0.23579397797584534
1789156643154141200,30.80414111328125,0.12950342893600464,0.059864792972803116,-0.3029891550540924
1789156643214108400,30.8641083984375,0.3323107063770294,0.03420845419168472,0.2724458873271942
1789156643274014200,30.92401416015625,-0.01038470957428217,-0.3597996234893799,-0.04642575979232788
1789156643333889800,30.983889892578127,-0.01710422709584236,-0.3897320330142975,-0.31581732630729675
1789156643393795800,31.0437958984375,-0.0806342139840126,0.001832595793530345,0.039095375686883926
1789156643453702000,31.103701904296877,-1.166752576828003,0.00733038317412138,-0.7959573864936829
1789156643513668900,31.1636689453125,-0.38606682419776917,0.42760565876960754,-0.1618792861700058
1789156643573605400,31.22360546875,-0.18997909128665924,-0.06658431142568588,0.16798794269561768
1789156643633572400,31.283572265625,-0.13377949595451355,-0.060475658625364304,-0.29077184200286865
1789156643693508900,31.3435087890625,0.05253441259264946,0.11056660860776901,0.17837265133857727
1789156643753476000,31.40347607421875,-0.1716531366109848,-0.20830504596233368,0.12889257073402405
1789156643813382000,31.4633818359375,0.031154127791523933,-0.13805554807186127,0.07513642311096191
1789156643873318400,31.523318359375,0.08735372871160507,-0.37262779474258423,0.04764748737215996
1789156643933255000,31.5832548828125,0.53328537940979,0.3029891550540924,0.18081611394882202
1789156643993222100,31.64322216796875,0.7458664774894714,0.5015203952789307,0.14844025671482086
1789156644053189000,31.703189208984377,0.7391469478607178,-0.31154128909111023,0.24434609711170197
1789156644113064700,31.763064697265627,0.3897320330142975,0.18997909128665924,0.06169738993048668
1789156644173031700,31.82303173828125,0.22663100063800812,0.09285151958465576,0.14905111491680145
1789156644232968200,31.88296826171875,0.1411098688840866,-0.2675589919090271,0.1966986060142517
1789156644292904700,31.94290478515625,-0.09162978827953339,-0.05192354694008827,0.13561208546161652
1789156644352810800,32.00281079101563,-0.2889392673969269,0.1411098688840866,-1.1056660413742065
1789156644412747300,32.06274731445313,-0.02687807008624077,0.5051855444908142,-0.039095375686883926
1789156644472683800,32.12268383789063,-0.8772025108337402,-0.3280346393585205,0.22113321721553802
1789156644532589800,32.18258984375,-0.31031954288482666,0.4612032473087311,-0.22296582162380219
1789156644592526300,32.2425263671875,-0.44593164324760437,-0.24495697021484375,0.18509216606616974
1789156644652493300,32.30249340820313,-0.3017674386501312,0.0910189226269722,0.03481931984424591
1789156644712429800,32.36242993164063,0.018325956538319588,-0.33597588539123535,-0.0024434609804302454
1789156644772335900,32.4223359375,0.03848451003432274,-0.3799581825733185,0.29016098380088806
1789156644832272400,32.4822724609375,0.0555887371301651,-0.11056660860776901,0.35674530267715454
1789156644892209000,32.542208984375,0.1612684279680252,-0.28527405858039856,0.2528982162475586
1789156644952145400,32.6021455078125,0.32070425152778625,0.1466076523065567,0.45875978469848633
1789156645012021000,32.66202099609375,0.12950342893600464,0.10995574295520782,-0.2968805134296417
1789156645071926800,32.7219267578125,0.3066543638706207,-0.10384709388017654,-0.21502456068992615
1789156645131863600,32.78186352539063,0.17470745742321014,0.3799581825733185,-0.00855211354792118
1789156645191830500,32.84183056640625,0.1472185254096985,-0.1918116807937622,0.17348572611808777
1789156645251705900,32.90170581054687,0.03726277872920036,-0.3481931984424591,-0.2632829248905182
1789156645311673000,32.96167309570313,0.01771509274840355,0.0403171069920063,0.30115658044815063
1789156645411587600,33.06158764648438,-0.2474004179239273,0.021991148591041565,0.15760323405265808
1789156645471524000,33.12152416992188,-0.7336491346359253,0.12889257073402405,-0.3640756905078888
1789156645531460600,33.18146069335938,-0.5149593949317932,0.4502076804637909,-0.5491678714752197
1789156645591366700,33.24136669921875,-0.09040805697441101,-0.1508837193250656,0.1508837193250656
1789156645651303200,33.30130322265625,-0.036041051149368286,-0.039095375686883926,0.1612684279680252
1789156645711270100,33.36127026367188,-0.1411098688840866,0.031154127791523933,0.17898350954055786
1789156645771206700,33.42120654296875,-0.08979719132184982,-0.03787364438176155,0.17043140530586243
1789156645831173600,33.48117358398437,0.04948008432984352,-0.0910189226269722,0.09529497474431992
1789156645891049200,33.54104931640625,0.19914206862449646,0.1062905490398407,0.06414084881544113
1789156645951016200,33.60101611328125,0.37201693654060364,0.7049384713172913,0.06475171446800232
1789156646010952700,33.66095263671875,-0.1258382350206375,0.15577064454555511,-0.7079927921295166
1789156646070920000,33.720919921875,0.48258355259895325,-0.021380282938480377,0.06230825558304787
1789156646130856400,33.7808564453125,0.3182607889175415,-0.059864792972803116,0.010995574295520782
1789156646190823400,33.84082348632813,0.09712757170200348,-0.10384709388017654,-0.23518311977386475
1789156646250698800,33.90069873046875,0.15515977144241333,0.152105450630188,0.41233405470848083
1789156646310604800,33.96060473632812,0.07147123664617538,-0.323147714138031,0.23029619455337524
1789156646370572000,34.02057202148438,-0.02015855349600315,-0.054367005825042725,0.36651915311813354
1789156646430508500,34.08050854492188,-0.015271631069481373,0.2217440903186798,0.25473082065582275
1789156646490445000,34.14044506835938,-0.7061602473258972,-0.5687155723571777,-0.5900958180427551
1789156646550381600,34.20038159179688,-0.779464066028595,0.28955012559890747,-0.3738495409488678
1789156646610287600,34.26028759765625,-0.10445795953273773,-0.24129177629947662,0.19853121042251587
1789156646670193400,34.320193359375,-0.38240164518356323,-0.1319468915462494,0.1771509200334549
1789156646730130000,34.3801298828125,-0.4807509481906891,-0.16004669666290283,0.06291911751031876
1789156646790097200,34.44009716796875,-0.3604104816913605,0.12522737681865692,0.38667771220207214
1789156646850064100,34.50006420898438,-0.14355333149433136,-0.03237585723400116,0.19547687470912933
1789156646910031000,34.56003100585937,0.039095375686883926,0.22540926933288574,0.23029619455337524
1789156646969906700,34.61990673828125,0.4288274049758911,0.5962044596672058,0.1973094791173935
1789156647069851600,34.7198515625,0.294437050819397,0.182648703455925,-0.42577308416366577
1789156647129818600,34.77981860351562,0.2840523421764374,-0.5057964324951172,-0.24434609711170197
1789156647189785900,34.83978588867188,0.28466320037841797,0.16493362188339233,-0.17104226350784302
1789156647249692000,34.89969189453125,0.31520646810531616,0.08368854224681854,0.1160643994808197
1789156647309659000,34.95965893554688,0.2730567753314972,-0.1111774742603302,0.17104226350784302
1789156647369595400,35.01959545898438,0.11423180252313614,-0.05925392732024193,0.12767083942890167
1789156647429532000,35.07953198242188,-0.02382374368607998,-0.1362229436635971,-0.04153883829712868
1789156647489438000,35.13943798828125,0.10201449692249298,0.19364428520202637,0.2119702398777008
1789156647549374500,35.19937451171875,-0.5540547966957092,-0.49724429845809937,-0.5943718552589417
1789156647609311000,35.25931103515625,-0.5161811113357544,0.33475416898727417,-0.7324274182319641
1789156647669247500,35.31924755859375,-0.13561208546161652,-0.17837265133857727,-0.03787364438176155
1789156647729153500,35.37915356445313,-0.12217304855585098,-0.08185594528913498,0.06780604273080826
1789156647789120500,35.43912060546875,-0.23396138846874237,0.11301007121801376,0.35185837745666504
1789156647849087500,35.49908740234375,-0.16554448008537292,-0.09040805697441101,0.15271630883216858
1789156647909054500,35.55905444335937,-0.20402899384498596,0.2021963894367218,0.05742133408784866
1789156647968968200,35.61896826171875,0.11667526513338089,0.15882496535778046,-0.11850785464048386
1789156648028965600,35.678965576171876,0.3323107063770294,0.2321287989616394,0.06414084881544113
1789156648088902100,35.738902099609376,0.08124507963657379,0.15577064454555511,-0.7299839854240417
1789156648148869400,35.798869384765624,0.4990769028663635,-0.015271631069481373,0.11545353382825851
1789156648208806000,35.858805908203124,0.2638937830924988,0.02015855349600315,-0.14844025671482086
1789156648268772900,35.91877294921875,0.30543261766433716,-0.1563815027475357,0.10873401165008545
1789156648328709400,35.97870947265625,0.12339477986097336,-0.012217304669320583,0.375071257352829
1789156648388615400,36.038615478515624,0.1111774742603302,-0.36224308609962463,0.11911872029304504
1789156648448552000,36.098552001953124,-0.0555887371301651,-0.33536502718925476,0.423329621553421
1789156648508458000,36.1584580078125,-0.152105450630188,0.29138273000717163,0.02076941914856434
1789156648568363800,36.21836376953125,-0.8252789378166199,-0.26145032048225403,-0.6133087277412415
1789156648628300300,36.27830029296875,-0.5149593949317932,0.7458664774894714,-0.8045095205307007
1789156648688267500,36.338267578125,-0.02932153269648552,-0.2736676335334778,0.27550023794174194
1789156648788151600,36.438151611328124,-0.1514945775270462,0.06352998316287994,0.0861319974064827
1789156648848088000,36.498088134765624,-0.11056660860776901,-0.22968533635139465,0.2223549485206604
1789156648907994000,36.557994140625,-0.05803219974040985,-0.03787364438176155,0.17043140530586243
1789156648967900000,36.61789990234375,-0.02871066704392433,-0.07819075137376785,-0.15760323405265808
1789156649027867100,36.6778671875,0.42149701714515686,0.16310101747512817,0.01466076634824276
1789156649087834000,36.737834228515624,0.294437050819397,0.1716531366109848,-0.4648684561252594
1789156649147801000,36.797801025390626,0.20586158335208893,0.21563543379306793,-0.6102544069290161
1789156649207737600,36.857737548828126,0.4996877610683441,-0.24678955972194672,0.2376265823841095
1789156649267643600,36.9176435546875,0.0024434609804302454,0.12950342893600464,-0.24190263450145721
1789156649327580200,36.977580078125,0.16249015927314758,-0.09468411654233932,0.07880161702632904
1789156649387547100,37.037547119140626,0.15577064454555511,-0.15577064454555511,0.35674530267715454
1789156649447453200,37.097453125,-0.013439035043120384,-0.29993483424186707,0.1111774742603302
1789156649507420200,37.157420166015626,-0.11301007121801376,-0.19914206862449646,0.06352998316287994
1789156649567357000,37.21735693359375,-0.19608774781227112,0.06169738993048668,0.13500121235847473
1789156649627262700,37.2772626953125,-0.8087855577468872,-0.6487388610839844,0.001832595793530345
1789156649687199200,37.33719921875,-0.5870414972305298,0.4031710624694824,0.18631389737129211
1789156649747166500,37.39716650390625,-0.36529740691185,-0.03420845419168472,-0.27550023794174194
1789156649807103000,37.45710302734375,-0.2822197377681732,0.17592918872833252,-0.10018189996480942
1789156649867039500,37.51703955078125,-0.11178833991289139,0.15027284622192383,0.17592918872833252
1789156649926976000,37.57697607421875,-0.042760565876960754,-0.006108652334660292,-0.012828170321881771
1789156649986851300,37.636851318359376,-0.048258353024721146,-0.11728613078594208,-0.016493361443281174
1789156650046818600,37.696818603515624,0.15271630883216858,0.04948008432984352,-0.13316862285137177
1789156650106755000,37.756755126953124,0.578489363193512,0.7104362845420837,0.3585779070854187
1789156650166691600,37.816691650390624,0.23029619455337524,-0.24984388053417206,-0.41599923372268677
1789156650226597600,37.87659765625,0.6493497490882874,0.33047810196876526,0.1319468915462494
1789156650286564600,37.936564697265624,0.34147366881370544,-0.004886921960860491,0.1569923609495163
1789156650346531600,37.996531494140626,0.3488040566444397,0.1313360333442688,0.03787364438176155
1789156650406498600,38.05649853515625,0.2626720666885376,0.0910189226269722,0.11484266817569733
1789156650466435000,38.11643505859375,0.3170390725135803,-0.3188716471195221,-0.007941247895359993
1789156650526341000,38.176341064453126,0.20463985204696655,-0.3988949954509735,0.23518311977386475
1789156650586277600,38.236277587890626,-0.02321287989616394,0.05375614017248154,0.015271631069481373
1789156650646183700,38.29618359375,-0.5057964324951172,-0.4239404797554016,-0.21868975460529327
1789156650706150700,38.356150634765626,-0.6621779203414917,0.34574973583221436,-0.17592918872833252
1789156650766118000,38.416117919921874,-0.34025195240974426,-0.07757988572120667,-0.2590068578720093
1789156650866032400,38.516032470703124,-0.4141666293144226,-0.24617868661880493,-0.09346238523721695
1789156650925969000,38.575968994140624,-0.3090978264808655,0.1508837193250656,0.13072516024112701
1789156650985905400,38.635905517578124,-0.16004669666290283,-0.28955012559890747,0.00427605677396059
1789156651045842000,38.695842041015624,-0.005497787147760391,0.16920967400074005,0.02626720629632473
1789156651105778400,38.7557783203125,0.30604347586631775,0.060475658625364304,0.2064724564552307
1789156651165745400,38.815745361328126,0.16249015927314758,-0.18875735998153687,0.03726277872920036
1789156651245640400,38.895640380859376,0.294437050819397,0.4789183437824249,-0.39156460762023926
1789156651305607400,38.955607421875,0.2926044464111328,-0.37079519033432007,0.3878994286060333
1789156651365574700,39.01557470703125,0.18875735998153687,0.17043140530586243,-0.04764748737215996
1789156651425511200,39.07551123046875,0.16432274878025055,0.14538592100143433,0.22113321721553802
1789156651485447700,39.13544775390625,0.2632829248905182,-0.3634648323059082,0.3029891550540924
1789156651625340200,39.275340087890626,-0.17898350954055786,-0.015882495790719986,0.00855211354792118
1789156651685307100,39.33530712890625,-0.7483099102973938,-0.5546656250953674,-0.5736024379730225
1789156651745274400,39.3952744140625,-0.6200281977653503,0.22479841113090515,-0.4697553813457489
1789156651805241300,39.455241455078124,-0.16859880089759827,-0.2889392673969269,0.8973610401153564
1789156651865208300,39.515208251953126,-0.3988949954509735,0.11667526513338089,-0.2938261926174164
1789156651925114400,39.5751142578125,-0.3078760802745819,0.1716531366109848,-0.20402899384498596
1789156651985020400,39.6350205078125,-0.20341812074184418,0.19120082259178162,0.07269296050071716
1789156652084995800,39.734995849609376,0.19425514340400696,0.015882495790719986,-0.26083946228027344
1789156652144963000,39.794963134765624,0.4239404797554016,0.37690386176109314,0.17409659922122955
1789156652204930000,39.854929931640626,0.3878994286060333,-0.1661553531885147,0.19364428520202637
1789156652264866600,39.914866455078126,0.35735616087913513,0.513126790523529,-0.23640485107898712
1789156652324803000,39.974802978515626,0.6243042945861816,-0.3927863538265228,0.3903428912162781
1789156652404759000,40.054759033203126,0.09529497474431992,0.16737708449363708,-0.028099801391363144
1789156652464695600,40.114695556640626,0.21013765037059784,0.08552113175392151,0.24984388053417206
1789156652524632300,40.17463232421875,0.04764748737215996,-0.3549126982688904,0.08857546001672745
1789156652624546800,40.274546875,-0.029932396486401558,-0.513126790523529,0.04703662544488907
1789156652684513800,40.334513671875,0.14782938361167908,-0.03481931984424591,0.5485569834709167
1789156652744450300,40.3944501953125,-0.6823364496231079,-0.3481931984424591,-0.46303585171699524
1789156652804417300,40.454417236328126,-0.384845107793808,0.21380282938480377,-0.0012217304902151227
1789156652864353800,40.514353759765626,-0.4343251883983612,-0.26083946228027344,-0.06108652427792549
1789156652964268500,40.6142685546875,-0.21074850857257843,-0.015271631069481373,-0.033597588539123535
1789156653024225000,40.67422509765625,-0.1869247704744339,-0.1820378452539444,0.025045474991202354
1789156653084161500,40.73416162109375,0.09834930300712585,-0.13988813757896423,-0.03787364438176155
1789156653144098000,40.79409814453125,0.3127630054950714,-0.010995574295520782,0.09773843735456467
1789156653204034600,40.85403466796875,0.4202753007411957,0.6426302194595337,0.06780604273080826
1789156653263971000,40.91397119140625,0.10384709388017654,-0.3078760802745819,-0.4050036668777466
1789156653323938000,40.97393798828125,0.2669481039047241,0.49357911944389343,-0.1215621829032898
1789156653443780600,41.093780517578125,0.2718350291252136,0.23090706765651703,0.1062905490398407
1789156653503686700,41.15368676757812,0.20402899384498596,0.1411098688840866,0.30482175946235657
1789156653563623200,41.213623046875,0.26145032048225403,-0.636521577835083,0.16310101747512817
1789156653623590100,41.273590087890625,-0.08246681094169617,0.06780604273080826,0.11667526513338089
1789156653683526700,41.333526611328125,-0.2736676335334778,0.152105450630188,0.10751228034496307
1789156653743463200,41.393463134765625,-0.2370157092809677,0.04092797264456749,0.2370157092809677
1789156653803399700,41.453399658203125,-1.091616153717041,0.21807889640331268,-1.2052371501922607
1789156653863275300,41.513275146484375,-0.19486601650714874,0.1062905490398407,0.07269296050071716
1789156653923181300,41.57318139648437,-0.15332718193531036,0.04398229718208313,0.31459560990333557
1789156653983087000,41.633087158203125,-0.024434609338641167,-0.22540926933288574,0.001832595793530345
1789156654083001900,41.733001953125,-0.25473082065582275,-0.14477506279945374,0.23335053026676178
1789156654142968800,41.79296875,-0.0555887371301651,-0.08307767659425735,-0.0708603709936142
1789156654202935800,41.852935791015625,0.2724458873271942,0.15577064454555511,0.027488935738801956
1789156654262902800,41.91290283203125,-0.05925392732024193,-0.7397578358650208,-0.23396138846874237
1789156654322778400,41.9727783203125,0.2590068578720093,0.5583308339118958,-0.3292563557624817
1789156654382745300,42.032745361328125,0.2736676335334778,-0.6102544069290161,0.26450464129447937
1789156654442681900,42.092681884765625,0.20586158335208893,0.1514945775270462,0.03481931984424591
1789156654502618400,42.152618408203125,0.0403171069920063,0.13439035415649414,0.22418753802776337
1789156654562524400,42.2125244140625,0.06291911751031876,-0.23273965716362,0.21807889640331268
1789156654622430500,42.272430419921875,-0.039095375686883926,-0.06414084881544113,0.11423180252313614
1789156654682367000,42.332366943359375,-0.15943582355976105,-0.26022860407829285,-0.0006108652451075613
1789156654742273000,42.39227294921875,0.030543262138962746,0.2168571650981903,0.1667662113904953
1789156654802209500,42.45220947265625,-0.7318165898323059,-0.21380282938480377,-1.086118459701538
1789156654862115600,42.512115478515625,-0.4392121136188507,0.45814892649650574,-0.3878994286060333
1789156654922052000,42.572052001953125,-0.18936823308467865,-0.09651670604944229,0.23029619455337524
1789156655021966600,42.671966552734375,-0.07269296050071716,-0.05803219974040985,0.23335053026676178
1789156655081903000,42.731903076171875,-0.05803219974040985,-0.18570303916931152,0.12828169763088226
1789156655141839600,42.791839599609375,-0.06780604273080826,-0.09896016865968704,0.09773843735456467
1789156655201776000,42.851776123046875,0.0006108652451075613,0.015271631069481373,-0.14416420459747314
1789156655261712600,42.911712646484375,0.484416127204895,0.36163222789764404,0.17837265133857727
1789156655321679600,42.9716796875,0.18814650177955627,0.06658431142568588,-0.3182607889175415
1789156655381646800,43.031646728515625,0.5870414972305298,-0.16737708449363708,0.02687807008624077
1789156655441553000,43.09155297851562,0.22296582162380219,0.15271630883216858,0.2718350291252136
1789156655501520000,43.151519775390625,0.17592918872833252,-0.09957103431224823,-0.07513642311096191
1789156655561456400,43.211456298828125,0.10995574295520782,0.20525072515010834,0.20830504596233368
1789156655621393000,43.271392822265625,0.02687807008624077,-0.3390302062034607,-0.06108652427792549
1789156655681268500,43.3312685546875,-0.11362093687057495,-0.06719517707824707,0.10812314599752426
1789156655741235500,43.3912353515625,-0.01038470957428217,-0.19120082259178162,-0.20463985204696655
1789156655801202400,43.451202392578125,-0.7061602473258972,0.025656340643763542,-0.5998696684837341
1789156655861139000,43.511138916015625,-0.4593706727027893,0.3488040566444397,-0.7476990818977356
1789156655921075500,43.571075439453125,0.08857546001672745,0.009773843921720982,0.4196644127368927
1789156655981012000,43.631011962890625,-0.01038470957428217,-0.1508837193250656,0.06169738993048668
1789156656040948500,43.690948486328125,0.06414084881544113,0.2590068578720093,0.0806342139840126
1789156656100915500,43.75091552734375,0.039095375686883926,0.015271631069481373,0.2125810980796814
1789156656160852000,43.81085205078125,0.016493361443281174,-0.0757472887635231,-0.05375614017248154
1789156656220788700,43.87078881835937,0.12767083942890167,0.11484266817569733,-0.12828169763088226
1789156656280755700,43.930755615234375,0.5009095072746277,0.45631635189056396,0.2822197377681732
1789156656340692200,43.990692138671875,-0.031154127791523933,-0.4660901725292206,-0.720820963382721
1789156656400628700,44.050628662109375,0.7605272531509399,0.5076290369033813,-0.06414084881544113
1789156656460565200,44.110565185546875,0.5650503635406494,-0.45326200127601624,0.5974262356758118
1789156656520501800,44.170501708984375,0.42699480056762695,0.2987131178379059,-0.04642575979232788
1789156656580407800,44.23040771484375,0.3072652220726013,-0.05192354694008827,0.04948008432984352
1789156656640374800,44.290374755859375,0.2669481039047241,-0.2919935882091522,0.04764748737215996
1789156656700311300,44.350311279296875,0.2125810980796814,-0.29565876722335815,0.16371189057826996
1789156656760247800,44.410247802734375,0.012217304669320583,-0.4190535545349121,0.09712757170200348
1789156656820214800,44.47021484375,-0.11362093687057495,-0.036041051149368286,0.20830504596233368
1789156656920129500,44.57012963867187,-0.15943582355976105,0.6707300543785095,-0.1973094791173935
1789156656980035300,44.630035400390625,-0.05009094998240471,-0.16065755486488342,0.5827654600143433
1789156657079919400,44.72991943359375,-0.0659734457731247,0.019547687843441963,-0.059864792972803116
1789156657159845000,44.80984521484375,0.1062905490398407,-0.11301007121801376,0.019547687843441963
1789156657219781600,44.86978173828125,0.2877175211906433,0.00855211354792118,-0.10995574295520782
1789156657279748600,44.92974853515625,0.7018841505050659,-0.2583959996700287,-0.1014036312699318
1789156657339715600,44.989715576171875,1.2748757600784302,0.46181413531303406,0.18814650177955627
1789156657399652000,45.049652099609375,1.1203268766403198,0.18814650177955627,-0.41233405470848083
1789156657459558100,45.10955810546875,1.8191566467285156,0.30970868468284607,0.03298672288656235
1789156657519494700,45.16949462890625,1.4477506875991821,0.47280970215797424,0.07147123664617538
1789156657579461600,45.229461669921875,1.9425514936447144,0.3695734739303589,0.11850785464048386
1789156657639398100,45.289398193359375,1.786780834197998,0.5088507533073425,0.5265658497810364
1789156657699365400,45.34936547851562,1.740355134010315,0.1667662113904953,0.12950342893600464
1789156657759332400,45.409332275390625,1.3946053981781006,0.32681289315223694,0.24129177629947662
1789156657819268900,45.469268798828125,0.9822713136672974,0.2883284091949463,-0.13255776464939117
1789156657879175000,45.5291748046875,0.9669997096061707,0.6884451508522034,-0.00733038317412138
1789156657939111400,45.589111328125,0.11545353382825851,0.5571091175079346,-0.8417723178863525
1789156657999048000,45.6490478515625,0.9645562171936035,0.8087855577468872,-0.1722639948129654
1789156658059018000,45.70901806640625,0.8729264140129089,0.5345070958137512,0.24434609711170197
1789156658118924000,45.76892407226563,0.8875871896743774,0.13439035415649414,-0.07391469180583954
1789156658178830000,45.828830078125,0.6481280326843262,0.152105450630188,0.252287358045578
1789156658238797000,45.88879711914063,0.6218608021736145,0.07819075137376785,0.0659734457731247
1789156658318692000,45.96869213867188,0.5479460954666138,0.025656340643763542,-0.00427605677396059
1789156658378598100,46.02859814453125,0.6798930168151855,0.13255776464939117,0.13255776464939117
1789156658438534700,46.08853466796875,0.42271876335144043,-0.3017674386501312,-0.08246681094169617
1789156658498501600,46.14850170898438,0.7269296646118164,0.9963212013244629,-0.32009339332580566
1789156658558407700,46.20840771484375,0.720820963382721,-0.4440990388393402,0.40683624148368835
1789156658618405000,46.26840502929687,0.7348709106445312,0.5699372887611389,0.26083946228027344
1789156658678341600,46.32834155273437,0.6878342628479004,0.20952677726745605,0.38179078698158264
1789156658738278100,46.38827807617187,0.4795292317867279,0.07757988572120667,0.3243694305419922
1789156658798184200,46.44818408203125,0.45875978469848633,-0.13072516024112701,0.19792033731937408
1789156658858090200,46.50809033203125,0.22907446324825287,-0.3029891550540924,0.014049900695681572
1789156658918026800,46.56802685546875,-0.1215621829032898,0.4764748811721802,-0.1966986060142517
1789156658977932800,46.62793286132813,-0.8790351152420044,-0.0910189226269722,-0.8136724829673767
1789156659037899800,46.68789965820312,-0.3439171314239502,0.27550023794174194,-0.242513507604599
1789156659097775400,46.747775390625,-0.019547687843441963,0.03481931984424591,0.4239404797554016
1789156659157681400,46.80768139648438,-0.13316862285137177,0.29993483424186707,-0.00855211354792118
1789156659217618000,46.86761791992188,-0.2993239760398865,0.029932396486401558,0.0012217304902151227
1789156659277523700,46.92752368164062,-0.23273965716362,-0.013439035043120384,0.012828170321881771
1789156659337460200,46.98746020507812,-0.18570303916931152,-0.06536258012056351,0.01771509274840355
1789156659397366300,47.0473662109375,0.12095131725072861,-0.08979719132184982,-0.015882495790719986
1789156659457272300,47.10727221679687,0.48685958981513977,0.48258355259895325,0.2528982162475586
1789156659517208800,47.16720874023437,0.29077184200286865,-0.11667526513338089,-0.6114761233329773
1789156659577145300,47.22714526367187,0.8546004891395569,0.23579397797584534,0.22602014243602753
1789156659637051400,47.28705151367188,0.44776421785354614,-0.21013765037059784,0.013439035043120384
1789156659697018400,47.34701831054687,0.38117989897727966,0.18631389737129211,-0.054367005825042725
1789156659756924400,47.40692431640625,0.3188716471195221,0.025656340643763542,0.43737950921058655
1789156659816861000,47.46686083984375,0.24862214922904968,-0.32009339332580566,0.20341812074184418
1789156659876797400,47.52679736328125,0.08246681094169617,-0.08918632566928864,0.3194825351238251
1789156659936703500,47.58670336914062,-0.19608774781227112,-0.39217549562454224,0.0959058403968811
1789156659996609500,47.64660961914063,-0.513126790523529,0.13072516024112701,-0.2669481039047241
1789156660056576500,47.70657641601562,-0.826500654220581,0.22052235901355743,-0.45814892649650574
1789156660116513000,47.76651293945312,-0.39645153284072876,0.0403171069920063,0.019547687843441963
1789156660176419000,47.82641918945313,-0.23457226157188416,0.036041051149368286,-0.19853121042251587
1789156660236386000,47.88638598632812,-0.07452555745840073,0.14966198801994324,0.394618958234787
1789156660296353300,47.94635327148438,-0.17409659922122955,-0.07147123664617538,0.2877175211906433
1789156660356320300,48.0063203125,-0.1973094791173935,0.025045474991202354,-0.04337143152952194
1789156660416287200,48.06628735351563,0.13561208546161652,0.2926044464111328,0.2168571650981903
1789156660476193300,48.126193359375,0.14966198801994324,0.2675589919090271,-0.0354301854968071
1789156660536160300,48.18616015625,0.10751228034496307,-0.46181413531303406,-0.5723807215690613
1789156660596066300,48.24606640625,0.5479460954666138,0.384845107793808,-0.12950342893600464
1789156660655942000,48.30594189453125,0.3591887652873993,-0.3799581825733185,0.13805554807186127
1789156660715817200,48.36581713867187,0.35124751925468445,0.06658431142568588,-0.1160643994808197
1789156660775753700,48.42575366210937,0.21868975460529327,-0.13255776464939117,0.26511552929878235
1789156660835720700,48.485720703125,0.07941248267889023,-0.4031710624694824,0.1716531366109848
1789156660895688000,48.54568798828125,-0.048258353024721146,-0.1612684279680252,-0.1270599663257599
1789156660955624400,48.60562451171875,-0.31093040108680725,-0.1270599663257599,-0.35124751925468445
1789156661015530500,48.66553051757813,-0.44287729263305664,-0.4098905920982361,-0.26450464129447937
1789156661075436300,48.72543627929687,-1.1252137422561646,0.08735372871160507,-0.5601634383201599
1789156661135403500,48.78540356445313,-0.4086688458919525,0.19914206862449646,-1.3060299158096313
1789156661195340000,48.84534008789063,-0.18570303916931152,-0.05864306539297104,0.1612684279680252
1789156661255307000,48.90530712890625,0.059864792972803116,0.13377949595451355,0.1319468915462494
1789156661315274000,48.96527392578125,-0.015271631069481373,0.24495697021484375,0.16004669666290283
1789156661375241200,49.0252412109375,0.24129177629947662,0.0024434609804302454,0.3628539443016052
1789156661435177700,49.085177734375,0.27977627515792847,0.04459316283464432,0.4141666293144226
1789156661495144700,49.14514477539063,0.4813618063926697,0.3878994286060333,0.656069278717041
1789156661555111700,49.20511157226562,0.11545353382825851,-0.5180137157440186,0.18325957655906677
1789156661615048200,49.26504809570312,0.3481931984424591,0.5748242139816284,-0.05009094998240471
1789156661674954200,49.32495434570313,0.37629300355911255,-0.5112941861152649,0.6389650702476501
1789156661734951700,49.38495166015625,0.05009094998240471,0.2932153046131134,-0.24617868661880493
1789156661794857700,49.44485766601562,-0.010995574295520782,-0.03298672288656235,0.0354301854968071
1789156661854794200,49.50479418945312,0.14049901068210602,-0.13316862285137177,0.26939156651496887
1789156661914669800,49.564669921875,0.01160643994808197,-0.21441370248794556,0.4239404797554016
1789156661974636800,49.62463671875,-0.1258382350206375,-0.36529740691185,0.1966986060142517
1789156662034603800,49.68460375976562,-0.15332718193531036,-0.11850785464048386,0.1466076523065567
1789156662094540300,49.74454028320312,-0.759916365146637,0.08674286305904388,-0.9639453291893005
1789156662154477000,49.80447705078125,-0.20586158335208893,-0.016493361443281174,-0.2626720666885376
1789156662214382800,49.8643828125,-0.42149701714515686,-0.021380282938480377,-0.20341812074184418
1789156662274319400,49.9243193359375,-0.3090978264808655,-0.006108652334660292,-0.12522737681865692
1789156662334286600,49.98428662109375,-0.24190263450145721,0.04337143152952194,0.2272418737411499
1789156662394192400,50.0441923828125,-0.19914206862449646,-0.20402899384498596,0.03787364438176155
1789156662454129200,50.10412915039063,-0.11178833991289139,-0.11362093687057495,-0.04092797264456749
1789156662514065700,50.16406567382813,0.36529740691185,0.3543018400669098,0.2119702398777008
1789156662573971500,50.22397143554687,0.22846360504627228,-0.2571742534637451,-0.010995574295520782
1789156662633908000,50.28390795898437,0.1466076523065567,0.5595525503158569,-0.47830748558044434
1789156662693875200,50.34387524414063,0.3701843321323395,-0.4306600093841553,0.21380282938480377
1789156662753781200,50.40378125,0.49357911944389343,0.25045475363731384,0.2987131178379059
1789156662813687000,50.46368701171875,0.3878994286060333,0.0910189226269722,0.20525072515010834
1789156662873654300,50.523654296875,0.26572638750076294,-0.35552358627319336,0.25045475363731384
1789156662933621200,50.58362133789063,0.02382374368607998,0.009773843921720982,0.21074850857257843
1789156662993557800,50.64355786132813,-0.12461651116609573,-0.44776421785354614,-0.24434609711170197
1789156663053494300,50.70349438476563,-0.26511552929878235,0.2632829248905182,-0.06169738993048668
1789156663113425000,50.7634248046875,-0.5589417219161987,0.45631635189056396,-0.7073819637298584
1789156663173361400,50.823361328125,-0.05375614017248154,-0.06719517707824707,0.10262536257505417
1789156663233328400,50.88332836914063,0.09285151958465576,0.22296582162380219,0.001832595793530345
1789156663293295400,50.94329541015625,0.11484266817569733,0.08185594528913498,0.24617868661880493
1789156663353262600,51.0032626953125,-0.036041051149368286,-0.01038470957428217,-0.042760565876960754
1789156663413199000,51.06319921875,-0.09957103431224823,0.09407325088977814,-0.21380282938480377
1789156663513113600,51.16311352539063,0.3481931984424591,0.4593706727027893,0.03787364438176155
1789156663573019600,51.22301953125,0.06291911751031876,-0.5729916095733643,-0.29504790902137756
1789156663672903700,51.32290356445313,0.7586946487426758,-0.4355469346046448,0.36529740691185
1789156663732840200,51.38284008789063,0.3335324227809906,0.1319468915462494,0.2871066629886627
1789156663792776700,51.44277661132813,0.1667662113904953,-0.23029619455337524,-0.19608774781227112
1789156663852713200,51.50271313476563,0.21502456068992615,-0.12034045159816742,0.41233405470848083
1789156663952658200,51.602658203125,-0.14416420459747314,-0.29016098380088806,0.25473082065582275
1789156664012594700,51.6625947265625,-0.44715335965156555,-0.12034045159816742,-0.04398229718208313
1789156664072562000,51.72256201171875,-0.3628539443016052,-0.009773843921720982,0.1875356286764145
1789156664132589800,51.78258984375,-0.6059783101081848,0.18631389737129211,-0.31520646810531616
1789156664192526300,51.8425263671875,-0.4911356568336487,0.12278391420841217,-0.0555887371301651
1789156664252462800,51.902462890625,-0.34513887763023376,0.24068090319633484,-0.21380282938480377
1789156664312430000,51.96243017578125,-0.19914206862449646,-0.06963863968849182,0.025045474991202354
1789156664372397000,52.02239697265625,-0.13377949595451355,-0.13866640627384186,-0.05314527451992035
1789156664432333600,52.08233349609375,-0.01771509274840355,-0.24862214922904968,-0.010995574295520782
1789156664492300500,52.14230053710938,0.2889392673969269,0.18509216606616974,0.2535090744495392
1789156664552237000,52.20223706054688,0.5992587804794312,0.2919935882091522,0.5106833577156067
1789156664612143000,52.26214306640625,0.01466076634824276,0.09957103431224823,-0.6633996367454529
1789156664672079600,52.32207958984375,0.5687155723571777,-0.10567969083786011,0.07452555745840073
1789156664732016000,52.38201611328125,0.23151792585849762,0.012217304669320583,0.2480112910270691
1789156664791952600,52.44195263671875,0.14782938361167908,-0.10690141469240189,-0.2779437005519867
1789156664851920000,52.501919921875,0.28588494658470154,0.08979719132184982,0.5864306092262268
1789156664911825700,52.56182568359375,0.1973094791173935,-0.3689626157283783,0.25595253705978394
1789156664971731700,52.62173168945313,0.06108652427792549,-0.2669481039047241,0.26572638750076294
1789156665031668200,52.68166821289063,-0.17104226350784302,0.04581489413976669,0.036651913076639175
1789156665091574300,52.74157421875,-0.6939429044723511,-0.19853121042251587,-0.27550023794174194
1789156665151480300,52.80148022460938,-0.6328563690185547,0.4489859640598297,-0.5748242139816284
1789156665211477800,52.86147778320313,-0.3194825351238251,-0.10873401165008545,-0.0006108652451075613
1789156665271414300,52.92141430664063,-0.3139847218990326,0.23945917189121246,-0.06841690838336945
1789156665331381500,52.981381591796875,-0.19853121042251587,-0.07330382615327835,0.02871066704392433
1789156665391318000,53.041318115234375,-0.07269296050071716,-0.17776179313659668,0.11850785464048386
1789156665451285000,53.10128491210938,0.022602014243602753,-0.09346238523721695,-0.00855211354792118
1789156665511252000,53.161251953125,0.1765400618314743,-0.07635815441608429,0.05009094998240471
1789156665571219000,53.22121899414063,0.37690386176109314,0.2791654169559479,0.45326200127601624
1789156665631155700,53.28115576171875,0.02015855349600315,0.03726277872920036,-0.42149701714515686
1789156665691122700,53.341122802734375,0.5283984541893005,-0.3029891550540924,0.23518311977386475
1789156665751059200,53.40105908203125,0.27550023794174194,0.13072516024112701,0.0806342139840126
1789156665811026200,53.46102612304688,0.2877175211906433,-0.039706241339445114,-0.028099801391363144
1789156665870962700,53.52096264648438,0.2565633952617645,0.06352998316287994,0.3084869384765625
1789156665930929700,53.5809296875,0.13255776464939117,-0.20402899384498596,0.04153883829712868
1789156665990866200,53.6408662109375,-0.07452555745840073,0.07391469180583954,0.05803219974040985
1789156666050802700,53.700802734375,-0.1722639948129654,-0.18997909128665924,0.11362093687057495
1789156666110770000,53.76077001953125,-1.1007791757583618,-0.11728613078594208,-0.6511823534965515
1789156666170737000,53.82073681640625,-0.4453207552433014,0.45631635189056396,-0.4056145250797272
1789156666230703900,53.88070385742188,-0.2015855312347412,0.025045474991202354,0.0861319974064827
1789156666290670800,53.9406708984375,-0.10812314599752426,0.15393804013729095,-0.2480112910270691
1789156666350607600,54.000607666015625,0.07269296050071716,0.1918116807937622,0.25595253705978394
1789156666410544000,54.060544189453125,0.014049900695681572,-0.06352998316287994,0.001832595793530345
1789156666470511000,54.12051098632813,0.15943582355976105,0.18081611394882202,-0.039706241339445114
1789156666530447600,54.18044750976563,0.33719760179519653,0.04153883829712868,0.04642575979232788
1789156666590384000,54.24038403320313,0.7281513810157776,0.08429940044879913,0.21807889640331268
1789156666650351000,54.30035107421875,-0.01710422709584236,0.49785518646240234,-0.7055493593215942
1789156666710287600,54.36028759765625,0.6896668672561646,-0.2376265823841095,0.19364428520202637
1789156666770254600,54.42025463867188,0.09651670604944229,0.22907446324825287,0.22602014243602753
1789156666830252300,54.48025219726563,0.11239920556545258,-0.021991148591041565,-0.12034045159816742
1789156666890188800,54.54018872070313,0.12400564551353455,0.11362093687057495,0.28588494658470154
1789156666950125300,54.60012524414063,0.11728613078594208,-0.33169981837272644,0.036651913076639175
1789156667010061800,54.66006176757813,0.1160643994808197,-0.31459560990333557,0.18631389737129211
1789156667070028800,54.72002880859375,0.06658431142568588,-0.2119702398777008,-0.03848451003432274
1789156667130026500,54.780026611328125,-0.8845328688621521,-0.4691445231437683,-0.6615670323371887
1789156667189993500,54.83999340820313,-0.5442809462547302,0.28527405858039856,-0.8533787727355957
1789156667249960400,54.89996044921875,-0.09407325088977814,-0.07208210229873657,0.3640756905078888
1789156667309927700,54.959927734375,-0.10201449692249298,0.08918632566928864,-0.10201449692249298
1789156667369864200,55.0198642578125,-0.17043140530586243,0.1814269721508026,0.24923302233219147
1789156667429831200,55.0798310546875,-0.1014036312699318,-0.15271630883216858,0.19120082259178162
1789156667489737200,55.1397373046875,0.04642575979232788,-0.004886921960860491,0.15271630883216858
1789156667549704200,55.1997041015625,0.2681698501110077,0.2620611786842346,0.2638937830924988
1789156667609640700,55.259640625,0.25106561183929443,-0.5442809462547302,-0.11728613078594208
1789156667669607700,55.31960766601563,-0.025045474991202354,0.66584312915802,-0.6328563690185547
1789156667729544200,55.37954418945313,0.6420193910598755,-0.5082398653030396,0.34025195240974426
1789156667789511400,55.439511474609375,0.13316862285137177,0.3640756905078888,0.036041051149368286
1789156667849478400,55.499478515625,0.21319197118282318,-0.1270599663257599,-0.17959438264369965
1789156667909445400,55.5594453125,0.24068090319633484,-0.018936822190880775,0.36713001132011414
1789156667969351400,55.61935131835938,0.2632829248905182,-0.11911872029304504,0.16310101747512817
1789156668029288000,55.67928784179688,0.054367005825042725,0.13439035415649414,-0.009162978269159794
1789156668089255000,55.7392548828125,-0.00427605677396059,-0.11484266817569733,-0.3072652220726013
1789156668149204700,55.799204833984376,-0.9853256344795227,-0.3445279896259308,-0.4593706727027893
1789156668209202200,55.8592021484375,-0.7483099102973938,0.7079927921295166,-0.5974262356758118
1789156668269169200,55.91916918945312,-0.2076941877603531,-0.048258353024721146,0.10995574295520782
1789156668329136400,55.979136474609376,0.13500121235847473,0.07635815441608429,0.3481931984424591
1789156668389103400,56.03910327148437,0.036651913076639175,-0.19303341209888458,0.4080579876899719
1789156668449070300,56.0990703125,-0.0959058403968811,-0.18448130786418915,0.013439035043120384
1789156668509006800,56.1590068359375,-0.059864792972803116,-0.051312681287527084,0.010995574295520782
1789156668568973800,56.21897387695312,0.3390302062034607,0.06475171446800232,0.12950342893600464
1789156668628941000,56.278941162109376,0.797789990901947,0.5491678714752197,0.6120869517326355
1789156668688908000,56.33890795898437,0.05803219974040985,-0.17287486791610718,-0.6591235995292664
1789156668748844500,56.39884448242187,0.6878342628479004,0.39706242084503174,-0.06352998316287994
1789156668808811500,56.4588115234375,0.5442809462547302,-0.34513887763023376,0.3237585723400116
1789156668868748000,56.518748046875,0.5326744914054871,0.06841690838336945,0.15393804013729095
1789156668928684500,56.5786845703125,0.28466320037841797,0.14844025671482086,0.33108896017074585
1789156668988621000,56.63862109375,-0.016493361443281174,-0.4813618063926697,-0.06902777403593063
1789156669048557600,56.6985576171875,0.0555887371301651,-0.17043140530586243,0.11789698898792267
1789156669148502800,56.79850268554687,-0.20341812074184418,0.02321287989616394,-0.23090706765651703
1789156669208469800,56.8584697265625,-0.931569516658783,-0.2779437005519867,-0.6798930168151855
1789156669268436700,56.91843676757812,-0.3695734739303589,0.13072516024112701,-0.2767219543457031
1789156669328434400,56.97843432617187,-0.11178833991289139,-0.22113321721553802,0.14294247329235077
1789156669388371000,57.03837084960937,-0.2217440903186798,-0.21563543379306793,0.27061331272125244
1789156669468327000,57.11832690429687,-0.5381723046302795,0.2565633952617645,-0.09162978827953339
1789156669528294000,57.1782939453125,-0.33719760179519653,0.2174680233001709,-0.15821409225463867
1789156669628239000,57.27823901367187,0.43127086758613586,-0.6499606370925903,0.403781920671463
1789156669688206000,57.3382060546875,0.38117989897727966,-0.0006108652451075613,0.1417207419872284
1789156669748173000,57.39817309570312,0.21380282938480377,0.423329621553421,-0.5100724697113037
1789156669808140300,57.458140380859376,0.7159340381622314,0.1014036312699318,0.26083946228027344
1789156669868107300,57.51810717773437,0.2724458873271942,0.375071257352829,-0.08124507963657379
1789156669928074200,57.57807421875,0.22968533635139465,0.048258353024721146,-0.18814650177955627
1789156669988010800,57.6380107421875,0.25595253705978394,-0.2638937830924988,0.7263187766075134
1789156670047916800,57.69791674804687,0.027488935738801956,-0.3885102868080139,0.32559117674827576
1789156670107883800,57.7578837890625,-0.14782938361167908,-0.19120082259178162,-0.17959438264369965
1789156670167820300,57.8178203125,-0.16920967400074005,0.03237585723400116,-0.045204028487205505
1789156670227726300,57.87772631835937,-0.5265658497810364,-0.48380526900291443,-0.4300491213798523
1789156670287693300,57.937693359375,-0.5613851547241211,0.588263213634491,-0.2871066629886627
1789156670347629800,57.9976298828125,-0.09162978827953339,-0.02932153269648552,0.05803219974040985
1789156670407597000,58.05759716796875,-0.3988949954509735,0.34208452701568604,0.016493361443281174
1789156670467533600,58.11753344726562,-0.16859880089759827,-0.04642575979232788,-0.1472185254096985
1789156670527500500,58.17750048828125,-0.02321287989616394,0.009162978269159794,0.36102136969566345
1789156670587467500,58.23746752929687,-0.03176499158143997,-0.15027284622192383,0.00427605677396059
1789156670647434500,58.2974345703125,0.12889257073402405,0.03298672288656235,-0.02932153269648552
1789156670747318500,58.39731860351562,0.0024434609804302454,-0.5057964324951172,-0.44287729263305664
1789156670807285800,58.45728564453125,0.3787364661693573,0.6609562039375305,-0.6579018831253052
1789156670867191800,58.51719189453125,0.7269296646118164,-0.37079519033432007,0.45204028487205505
1789156670927128300,58.57712841796875,0.4605923891067505,0.22846360504627228,-0.05192354694008827
1789156670987064800,58.63706494140625,0.23090706765651703,0.03787364438176155,0.05375614017248154
1789156671047031800,58.69703173828125,0.37140607833862305,-0.1459967941045761,0.32986724376678467
1789156671106968300,58.75696826171875,0.3243694305419922,-0.01710422709584236,0.37751471996307373
1789156671166874400,58.81687426757812,-0.13011430203914642,-0.11850785464048386,-0.12034045159816742
1789156671266788900,58.91678881835937,-0.6004805564880371,0.02321287989616394,-0.42210787534713745
1789156671326725400,58.97672534179687,-0.5833762884140015,0.5497786998748779,-0.11484266817569733
1789156671386692400,59.0366923828125,-0.50335294008255,-0.025656340643763542,0.10873401165008545
1789156671446628900,59.09662890625,-0.4642575979232788,0.0861319974064827,-0.2541199326515198
1789156671506565400,59.1565654296875,-0.2718350291252136,-0.1160643994808197,0.04398229718208313
1789156671566502000,59.216501953125,-0.13500121235847473,-0.20952677726745605,0.021991148591041565
1789156671626438400,59.2764384765625,0.00855211354792118,-0.25534167885780334,-0.036041051149368286
1789156671686405600,59.33640551757812,0.26511552929878235,0.22602014243602753,0.3090978264808655
1789156671746342100,59.39634204101562,0.4990769028663635,0.3017674386501312,0.4550946056842804
1789156671806278700,59.45627856445312,-0.03481931984424591,-0.11178833991289139,-0.5259549617767334
1789156671866215200,59.51621508789062,0.4001167416572571,0.03848451003432274,-0.06780604273080826
1789156671926151700,59.57615161132812,0.3781255781650543,-0.08368854224681854,0.1820378452539444
1789156671986057700,59.6360576171875,0.2871066629886627,-0.14294247329235077,-0.16432274878025055
1789156672045994200,59.695994140625,0.22479841113090515,0.12461651116609573,0.07208210229873657
1789156672105900300,59.755900390625,0.1007927656173706,-0.20036379992961884,0.009162978269159794
1789156672165836800,59.8158369140625,0.03726277872920036,0.2993239760398865,0.02321287989616394
1789156672225864700,59.87586474609375,-0.10995574295520782,-0.37629300355911255,-0.34147366881370544
1789156672285801200,59.93580126953125,-0.35246923565864563,-0.6524040699005127,-0.32070425152778625
1789156672345737700,59.99573779296875,-0.4343251883983612,0.36590829491615295,-0.05253441259264946
1789156672405705000,60.055705078125,-0.46303585171699524,-0.09712757170200348,-0.1270599663257599
1789156672465641500,60.11564135742187,-0.3597996234893799,0.22968533635139465,-0.2021963894367218
1789156672525578000,60.17557788085937,0.17409659922122955,0.16310101747512817,0.4184426963329315
1789156672585484000,60.235484130859376,0.3536909818649292,0.1508837193250656,-0.004886921960860491
1789156672645389800,60.29538989257812,0.4960225820541382,0.05742133408784866,0.19547687470912933
1789156672705326300,60.35532641601562,0.413555771112442,0.14477506279945374,0.2480112910270691
1789156672765202000,60.41520190429687,0.3927863538265228,0.47708576917648315,0.43799036741256714
1789156672825138400,60.47513842773437,-0.3139847218990326,-0.2474004179239273,-0.5809328556060791
1789156672885075000,60.53507495117187,0.46792277693748474,0.17776179313659668,-0.3225368559360504
1789156672944981000,60.59498095703125,0.7605272531509399,-0.1007927656173706,0.2981022298336029
1789156673004917500,60.65491748046875,0.48319441080093384,-0.20097467303276062,-0.036651913076639175
1789156673064884500,60.71488452148437,0.979216992855072,0.5687155723571777,-0.056810468435287476
1789156673124821000,60.77482104492187,0.12522737681865692,0.0659734457731247,-0.028099801391363144
1789156673184727000,60.83472705078125,-0.43737950921058655,-0.05803219974040985,-0.3029891550540924
1789156673244647700,60.89464770507813,-0.7947356700897217,0.14844025671482086,-0.49846604466438293
1789156673304553700,60.9545537109375,-1.4373658895492554,-0.3530801236629486,-0.24617868661880493
1789156673364490200,61.014490234375,-0.8038986921310425,0.26939156651496887,-0.1765400618314743
1789156673424426800,61.0744267578125,-0.7226535677909851,0.1411098688840866,0.19486601650714874
1789156673484394000,61.13439404296875,-0.11239920556545258,0.1062905490398407,0.34697145223617554
1789156673544330500,61.19433056640625,-0.025045474991202354,-0.2919935882091522,0.47342056035995483
1789156673604267000,61.25426708984375,-0.23396138846874237,0.08857546001672745,0.43127086758613586
1789156673664203500,61.31420361328125,0.042760565876960754,-0.03726277872920036,-0.00855211354792118
1789156673724140000,61.37414013671875,0.32070425152778625,0.07391469180583954,0.23151792585849762
1789156673784107000,61.43410693359375,0.4489859640598297,-0.7959573864936829,0.6291912198066711
1789156673844043500,61.49404345703125,-0.6206390857696533,0.07147123664617538,-0.7202101349830627
1789156673904010500,61.55401049804688,0.3982841372489929,-0.027488935738801956,-0.3396410644054413
1789156673963947000,61.61394702148438,0.1716531366109848,-0.21135938167572021,0.2974913716316223
1789156674023822600,61.67382250976563,0.24190263450145721,0.018936822190880775,-0.3335324227809906
1789156674083789600,61.73378955078125,0.16554448008537292,0.0806342139840126,0.41661009192466736
1789156674143726000,61.79372607421875,0.06414084881544113,-0.18081611394882202,0.10445795953273773
1789156674203632000,61.85363208007813,-0.17959438264369965,-0.22968533635139465,0.1264491081237793
1789156674263568600,61.91356860351563,-0.27000242471694946,0.02871066704392433,-0.16554448008537292
1789156674323505200,61.97350512695313,-0.6218608021736145,-0.25595253705978394,-0.1612684279680252
1789156674383411200,62.0334111328125,-0.5412266254425049,0.3500257730484009,-0.41172316670417786
1789156674443347700,62.09334765625,-0.6029239892959595,-0.08552113175392151,0.4807509481906891
1789156674503284200,62.1532841796875,-0.9896016716957092,0.15943582355976105,-0.423329621553421
1789156674563220700,62.213220703125,-0.836885392665863,0.12095131725072861,-0.4349360466003418
1789156674623157200,62.2731572265625,-0.17470745742321014,0.39217549562454224,0.6291912198066711
1789156674683093800,62.33309375,0.4593706727027893,-0.09651670604944229,0.152105450630188
1789156674742999800,62.39299975585938,0.40194934606552124,0.3170390725135803,0.05497787147760391
1789156674802966800,62.452966796875,0.7605272531509399,0.2577851414680481,0.2431243658065796
1789156674862903300,62.5129033203125,0.2583959996700287,-0.5644394755363464,-0.41722095012664795
1789156674922839800,62.57283984375,0.5742133259773254,0.4092797040939331,-0.10384709388017654
1789156674982745900,62.63274584960938,0.5119050741195679,-0.3274237811565399,0.16249015927314758
1789156675042682400,62.69268237304688,0.5473352670669556,0.09896016865968704,-0.0806342139840126
1789156675102619000,62.75261889648438,0.3927863538265228,0.19608774781227112,0.42149701714515686
1789156675162555400,62.81255541992188,0.28649580478668213,-0.08124507963657379,0.34147366881370544
1789156675222492000,62.87249194335938,-0.03848451003432274,-0.16371189057826996,0.34086281061172485
1789156675282398000,62.93239794921875,-0.11545353382825851,-0.2889392673969269,0.14966198801994324
1789156675342334500,62.99233447265625,-0.2125810980796814,-0.19608774781227112,0.1667662113904953
1789156675402240500,63.05224047851563,-0.5644394755363464,0.21319197118282318,-0.8491026759147644
1789156675462207500,63.11220751953125,-0.25106561183929443,-0.03787364438176155,-0.039095375686883926
1789156675522144000,63.17214404296875,-0.19486601650714874,0.02871066704392433,-0.11728613078594208
1789156675582080800,63.232080810546876,-0.25473082065582275,0.10690141469240189,0.06352998316287994
1789156675642047700,63.2920478515625,-0.30970868468284607,-0.1014036312699318,0.182648703455925
1789156675701984300,63.351984375,-0.15577064454555511,0.12034045159816742,0.1062905490398407
1789156675761951200,63.411951171875,-0.018936822190880775,0.029932396486401558,0.12034045159816742
1789156675821857300,63.47185717773438,0.2889392673969269,0.1466076523065567,0.2822197377681732
1789156675881824300,63.53182421875,0.14966198801994324,-0.48808133602142334,0.060475658625364304
1789156675941760800,63.5917607421875,0.2785545587539673,0.7134906053543091,-0.3481931984424591
1789156676001789000,63.65178881835938,0.3017674386501312,-0.7293730974197388,-0.01160643994808197
1789156676061695000,63.711695068359376,0.4605923891067505,0.4740314185619354,-0.2528982162475586
1789156676121662000,63.77166186523438,0.34513887763023376,-0.08307767659425735,0.10262536257505417
1789156676181598500,63.83159838867188,0.41661009192466736,-0.030543262138962746,0.2669481039047241
1789156676241596000,63.89159594726563,0.16920967400074005,-0.045204028487205505,0.24556782841682434
1789156676301471500,63.95147143554688,0.07941248267889023,-0.14294247329235077,0.2125810980796814
1789156676361408000,64.01140795898438,-0.04092797264456749,0.25961771607398987,0.05192354694008827
1789156676421344500,64.07134448242188,-0.8069530129432678,0.02382374368607998,-0.6450737118721008
1789156676481220000,64.13122021484375,-0.07819075137376785,0.2168571650981903,-0.26022860407829285
1789156676541156600,64.19115649414063,-0.3933972120285034,-0.21441370248794556,0.42088615894317627
1789156676601062700,64.25106274414063,-0.6377432942390442,-0.14538592100143433,-0.001832595793530345
1789156676660999200,64.31099926757813,-0.4202753007411957,0.00855211354792118,0.18509216606616974
1789156676720905200,64.3709052734375,-0.2828305959701538,-0.07452555745840073,0.16737708449363708
1789156676780841700,64.430841796875,-0.10018189996480942,0.16554448008537292,0.04398229718208313
1789156676840747500,64.49074755859375,0.24556782841682434,0.005497787147760391,0.0959058403968811
1789156676900653600,64.55065356445313,0.6133087277412415,0.26511552929878235,0.21868975460529327
1789156676960590000,64.61059008789063,0.0024434609804302454,0.25961771607398987,-0.7098253965377808
1789156677020526600,64.67052661132813,0.8344419002532959,-0.31093040108680725,0.16249015927314758
1789156677080493800,64.73049389648438,0.4147774875164032,0.17959438264369965,0.11239920556545258
1789156677140460800,64.79046069335938,0.5699372887611389,-0.00366519158706069,-0.07330382615327835
1789156677240344800,64.8903447265625,0.303600013256073,-0.3536909818649292,0.21013765037059784
1789156677300251000,64.9502509765625,0.1270599663257599,-0.20402899384498596,0.4245513379573822
1789156677360157000,65.01015698242188,-0.10690141469240189,-0.028099801391363144,0.18387043476104736
1789156677420124000,65.0701240234375,-0.5070181488990784,0.025656340643763542,-0.014049900695681572
1789156677480030000,65.13003002929688,-0.8991936445236206,0.5442809462547302,-1.1704177856445312
1789156677539997000,65.18999682617188,-0.09407325088977814,0.18448130786418915,0.11789698898792267
1789156677599964000,65.2499638671875,-0.25045475363731384,0.16371189057826996,0.007941247895359993
1789156677659900400,65.309900390625,-0.1973094791173935,-0.012217304669320583,0.21930062770843506
1789156677719837000,65.3698369140625,-0.2590068578720093,-0.04948008432984352,0.33536502718925476
1789156677779773400,65.4297734375,-0.17287486791610718,-0.03787364438176155,-0.02382374368607998
1789156677839679500,65.48967944335938,-0.025045474991202354,-0.030543262138962746,-0.17592918872833252
1789156677899646500,65.549646484375,0.43249258399009705,0.3695734739303589,0.22602014243602753
1789156677959613700,65.60961376953125,0.07147123664617538,-0.5742133259773254,-0.3885102868080139
1789156678019489000,65.66948901367188,0.2828305959701538,0.49296826124191284,-0.152105450630188
1789156678079456300,65.72945629882813,0.11362093687057495,-0.5845980644226074,0.0507018156349659
1789156678139392800,65.78939282226563,0.23945917189121246,0.1459967941045761,-0.20952677726745605
1789156678199329300,65.84932934570313,0.13316862285137177,0.031154127791523933,0.24007004499435425
1789156678259245800,65.90924584960938,0.10567969083786011,-0.21319197118282318,0.21074850857257843
1789156678319182300,65.96918237304688,-0.1618792861700058,-0.01038470957428217,0.009162978269159794
1789156678379118800,66.02911889648438,-0.27977627515792847,-0.4129449129104614,0.08246681094169617
1789156678439025000,66.08902490234375,-0.21807889640331268,0.00427605677396059,-0.10812314599752426
1789156678498961400,66.14896142578125,-0.5601634383201599,-0.26633724570274353,-0.788016140460968
1789156678558928400,66.20892846679688,-0.060475658625364304,0.2926044464111328,0.16798794269561768
1789156678618895400,66.26889526367188,-0.2632829248905182,0.0006108652451075613,0.11667526513338089
1789156678678831900,66.32883178710938,-0.3378084897994995,-0.014049900695681572,-0.02626720629632473
1789156678738768400,66.38876831054688,-0.2528982162475586,0.13561208546161652,0.43188172578811646
1789156678798705000,66.44870483398438,-0.22663100063800812,0.08429940044879913,0.24495697021484375
1789156678858672000,66.50867211914063,-0.42210787534713745,-0.060475658625364304,0.37629300355911255
1789156678918669600,66.56866967773438,-0.17409659922122955,0.3640756905078888,0.033597588539123535
1789156678978575600,66.62857568359375,0.5900958180427551,0.17470745742321014,-0.18997909128665924
1789156679038481700,66.68848168945313,0.20463985204696655,0.03176499158143997,-1.1032226085662842
1789156679098418200,66.74841821289063,0.9321803450584412,-0.06169738993048668,0.09224065393209457
1789156679158324200,66.80832421875,0.588874101638794,-0.10262536257505417,-0.027488935738801956
1789156679218230000,66.86822998046875,0.4813618063926697,0.03726277872920036,-0.015271631069481373
1789156679278197200,66.928197265625,0.30543261766433716,0,0.3237585723400116
1789156679338133800,66.9881337890625,0.24678955972194672,-0.152105450630188,0.08368854224681854
1789156679398100700,67.04810083007813,0.08185594528913498,-0.31031954288482666,0.08491026610136032
1789156679458037200,67.10803735351563,0.09773843735456467,-0.08857546001672745,0.2926044464111328
1789156679518004200,67.16800415039063,-0.39645153284072876,-0.37690386176109314,0.05742133408784866
1789156679577971500,67.22797143554688,-0.6108652353286743,0.18509216606616974,-1.226617455482483
1789156679637938400,67.2879384765625,-0.14416420459747314,0.09651670604944229,0.13805554807186127
1789156679697844500,67.34784448242188,-0.24495697021484375,0.22357667982578278,0.03848451003432274
1789156679797728500,67.447728515625,-0.25106561183929443,0.1062905490398407,0.2926044464111328
1789156679857695500,67.50769555664063,-0.13500121235847473,-0.22602014243602753,0.11301007121801376
1789156679917662500,67.56766235351563,-0.12767083942890167,-0.03481931984424591,-0.0354301854968071
1789156679977599000,67.62759887695313,0.09224065393209457,0.06719517707824707,-0.06780604273080826
1789156680037566000,67.68756591796875,0.25045475363731384,-0.07024950534105301,-0.025045474991202354
1789156680097533200,67.747533203125,0.38117989897727966,0.3891211748123169,-0.4105014503002167
1789156680157439200,67.80743920898438,0.3488040566444397,-0.2816088795661926,0.1264491081237793
1789156680217375700,67.86737573242188,0.21868975460529327,0.3176499307155609,-0.4544837474822998
1789156680277312300,67.92731225585938,0.3597996234893799,-0.24495697021484375,0.3530801236629486
1789156680337248800,67.98724877929688,0.34025195240974426,-0.0555887371301651,0.294437050819397
1789156680397215700,68.0472158203125,0.09285151958465576,-0.313373863697052,0.12278391420841217
1789156680457182700,68.1071826171875,-0.14966198801994324,-0.2871066629886627,0.16737708449363708
1789156680517119200,68.167119140625,0.19364428520202637,0.1973094791173935,0.15882496535778046
1789156680577086200,68.22708618164063,-0.5809328556060791,-0.3585779070854187,-0.2321287989616394
1789156680637022700,68.28702270507813,-0.22663100063800812,0.3585779070854187,-0.4343251883983612
1789156680696959500,68.34695947265625,-0.23579397797584534,0.03420845419168472,0.3194825351238251
1789156680756896000,68.40689599609375,-0.2223549485206604,0.019547687843441963,-0.18448130786418915
1789156680816832500,68.46683251953125,-0.35124751925468445,0.16249015927314758,0.33719760179519653
1789156680876769000,68.52676904296875,-0.26022860407829285,-0.06658431142568588,0.2076941877603531
1789156680936705500,68.58670556640625,-0.09712757170200348,-0.19486601650714874,0.3927863538265228
1789156680996642000,68.64664208984375,0.11362093687057495,-0.11850785464048386,0.23396138846874237
1789156681056578600,68.70657861328125,0.2528982162475586,0.24617868661880493,0.2822197377681732
1789156681116545500,68.76654565429688,-0.5021312236785889,-0.36651915311813354,-1.0995573997497559
1789156681176512500,68.82651245117188,0.4917465150356293,0.4202753007411957,0.14538592100143433
1789156681236479700,68.88647973632813,0.06902777403593063,-0.19547687470912933,0.12767083942890167
1789156681296416300,68.94641625976563,0.23884831368923187,0.06230825558304787,-0.304210901260376
1789156681356322000,69.00632202148438,0.23945917189121246,-0.036041051149368286,0.4129449129104614
1789156681416258600,69.06625854492188,0.21624629199504852,-0.16982053220272064,0.03237585723400116
1789156681476195300,69.1261953125,-0.013439035043120384,-0.1618792861700058,0.2480112910270691
1789156681536131800,69.1861318359375,-0.05192354694008827,0.09529497474431992,0.00855211354792118
1789156681596098800,69.24609887695313,-0.24129177629947662,0.10445795953273773,0.018936822190880775
1789156681656035300,69.30603540039063,-0.5406157374382019,0.21074850857257843,-0.5638286471366882
1789156681715971800,69.36597192382813,-0.21502456068992615,-0.15027284622192383,0.09773843735456467
1789156681775908400,69.42590844726563,-0.29016098380088806,-0.029932396486401558,-0.2125810980796814
1789156681835844900,69.48584497070313,-0.29626965522766113,-0.0555887371301651,0.24129177629947662
1789156681895751000,69.5457509765625,-0.29138273000717163,-0.059864792972803116,0.1765400618314743
1789156681955687400,69.6056875,-0.22540926933288574,-0.38606682419776917,0.15515977144241333
1789156682015654400,69.665654296875,-0.2773328125476837,0.018936822190880775,0.09957103431224823
1789156682075591000,69.7255908203125,0.20463985204696655,0.4893030524253845,0.10323622822761536
1789156682135558000,69.78555786132813,-0.036041051149368286,-0.3378084897994995,-0.5839871764183044
1789156682195494400,69.84549438476563,0.5369505286216736,0.11056660860776901,0.0757472887635231
1789156682255400400,69.905400390625,0.3127630054950714,-0.24862214922904968,0.015882495790719986
1789156682315306500,69.96530639648438,0.3683517575263977,-0.004886921960860491,-0.1875356286764145
1789156682375243000,70.02524291992188,0.46242499351501465,-0.02626720629632473,0.2822197377681732
1789156682435210000,70.0852099609375,0.3701843321323395,-0.04703662544488907,0.36713001132011414
1789156682495177200,70.14517724609375,0.21991148591041565,-0.19792033731937408,0.2015855312347412
1789156682555113700,70.20511376953125,-0.09834930300712585,-0.32070425152778625,0.17776179313659668
1789156682615050200,70.26505029296875,-0.26939156651496887,-0.03176499158143997,-0.2528982162475586
1789156682675017200,70.32501733398438,-0.7165449261665344,0.15882496535778046,-0.7257078886032104
1789156682734953700,70.38495361328125,-0.24617868661880493,0.1014036312699318,-0.5791002511978149
1789156682794890200,70.44489013671875,-0.09957103431224823,0.17837265133857727,-0.16920967400074005
1789156682854826800,70.50482666015625,-0.18875735998153687,-0.1411098688840866,0.0024434609804302454
1789156682914763300,70.56476318359375,-0.2883284091949463,0.04703662544488907,0.05192354694008827
1789156682974699800,70.62469970703125,-0.1667662113904953,0.09651670604944229,0.01160643994808197
1789156683034636300,70.68463623046875,0.07819075137376785,-0.11362093687057495,-0.01771509274840355
1789156683094511900,70.74451196289063,0.6493497490882874,0.10873401165008545,0.4080579876899719
1789156683194456800,70.84445678710938,0.0659734457731247,-0.19608774781227112,-0.6591235995292664
1789156683254424000,70.90442407226563,0.4801400899887085,0.4905247986316681,0.08368854224681854
1789156683314345700,70.964345703125,0.19486601650714874,-0.20525072515010834,0.025656340643763542
1789156683374251800,71.02425170898438,0.09896016865968704,0.17837265133857727,-0.19425514340400696
1789156683434218800,71.08421875,0.2064724564552307,0.2272418737411499,0.45631635189056396
1789156683494155300,71.1441552734375,0.10934487730264664,-0.14233160018920898,0.10873401165008545
1789156683554122200,71.20412231445313,-0.014049900695681572,-0.12461651116609573,0.29565876722335815
1789156683614058800,71.26405883789063,-0.014049900695681572,-0.21991148591041565,0.23090706765651703
1789156683673995300,71.32399536132813,0.10751228034496307,-0.33597588539123535,0.3170390725135803
1789156683733931800,71.38393188476563,-0.6328563690185547,0.05192354694008827,-0.5522221922874451
1789156683793837800,71.443837890625,-0.23640485107898712,0.04642575979232788,-0.3591887652873993
1789156683853774300,71.5037744140625,-0.41661009192466736,-0.0555887371301651,-0.0659734457731247
1789156683913710800,71.5637109375,-0.42088615894317627,0.10934487730264664,-0.24862214922904968
1789156683973647400,71.6236474609375,-0.29565876722335815,0.24068090319633484,0.1661553531885147
1789156684033614600,71.68361450195313,-0.12339477986097336,-0.27977627515792847,-0.1417207419872284
1789156684093581600,71.74358154296876,0.09957103431224823,0.15943582355976105,0.1820378452539444
1789156684153518000,71.80351806640626,0.37629300355911255,0.04886921867728233,0.30115658044815063
1789156684213485000,71.86348510742188,0.04337143152952194,-0.5363397002220154,-0.48319441080093384
1789156684273421600,71.92342163085938,0.2919935882091522,0.808174729347229,-0.25045475363731384
1789156684333358000,71.98335815429688,0.3995058834552765,-0.24984388053417206,0.27977627515792847
1789156684393294600,72.04329467773438,0.30115658044815063,0.2541199326515198,-0.07941248267889023
1789156684453231000,72.10323120117188,0.15027284622192383,-0.07391469180583954,0.03848451003432274
1789156684513198300,72.1631982421875,0.2590068578720093,0.05497787147760391,0.2571742534637451
1789156684573134800,72.223134765625,0.11362093687057495,-0.24495697021484375,0.05925392732024193
1789156684633071400,72.2830712890625,0.08979719132184982,-0.3781255781650543,0.05803219974040985
1789156684693008000,72.3430078125,-0.02321287989616394,0.01771509274840355,-0.07269296050071716
1789156684752944400,72.4029443359375,-0.5558874011039734,-0.13988813757896423,-0.6670648455619812
1789156684812850400,72.46285034179688,-0.05864306539297104,0.04337143152952194,-0.3646865487098694
1789156684872756200,72.52275610351562,-0.021991148591041565,-0.03237585723400116,0.3029891550540924
1789156684932662300,72.58266235351563,-0.24495697021484375,0.27611109614372253,-0.17959438264369965
1789156685032576800,72.68257666015624,-0.182648703455925,-0.05009094998240471,0.14844025671482086
1789156685092544000,72.7425439453125,-0.048258353024721146,-0.06780604273080826,0.03298672288656235
1789156685152480500,72.80248046875,-0.06169738993048668,-0.060475658625364304,-0.27061331272125244
1789156685212447500,72.86244750976563,0.4147774875164032,0.6884451508522034,0.4080579876899719
1789156685272384000,72.92238403320313,0.20952677726745605,-0.503963828086853,-0.5693264007568359
1789156685372268000,73.02226806640626,0.42638394236564636,-0.35246923565864563,0.2718350291252136
1789156685432235000,73.08223510742188,0.25595253705978394,0.3597996234893799,0.10690141469240189
1789156685492171500,73.14217163085938,0.21624629199504852,-0.06841690838336945,0.2785545587539673
1789156685552138800,73.202138671875,0.21441370248794556,-0.07269296050071716,0.3078760802745819
1789156685612075300,73.2620751953125,0.23029619455337524,-0.3927863538265228,0.23151792585849762
1789156685672042200,73.32204223632813,0.018936822190880775,0.007941247895359993,-0.06780604273080826
1789156685731978800,73.38197875976563,-0.14355333149433136,0.35552358627319336,0.015271631069481373
1789156685791945700,73.44194580078126,-1.1148290634155273,-0.5534439086914062,-0.8436049222946167
1789156685851882200,73.50188232421876,0.12889257073402405,0.6939429044723511,-0.4508185386657715
1789156685911849200,73.56184912109374,0.4660901725292206,-0.2583959996700287,1.0378600358963013
1789156685971816400,73.62181640625,-0.4917465150356293,0.009773843921720982,-0.34513887763023376
1789156686031753000,73.6817529296875,-0.3988949954509735,0.1014036312699318,-0.02687807008624077
1789156686091689500,73.741689453125,-0.30482175946235657,-0.06841690838336945,0.3127630054950714
1789156686151626000,73.8016259765625,-0.07208210229873657,-0.01160643994808197,-0.0910189226269722
1789156686211562500,73.8615625,0.07452555745840073,0.03481931984424591,-0.10262536257505417
1789156686271499000,73.9214990234375,0.5650503635406494,0.7470881938934326,-0.13927727937698364
1789156686331435500,73.981435546875,-0.28099802136421204,-0.5674937963485718,-1.1105530261993408
1789156686391372000,74.0413720703125,0.7031059265136719,0.6017022728919983,0.015882495790719986
1789156686451339000,74.10133911132813,0.4404338300228119,-0.3378084897994995,0.684779942035675
1789156686511275500,74.16127563476563,0.30054569244384766,0.09162978827953339,-0.00427605677396059
1789156686571212000,74.2212119140625,0.28649580478668213,0.10567969083786011,0.40622538328170776
1789156686671096000,74.32109594726562,0.21074850857257843,-0.2736676335334778,0.28649580478668213
1789156686731032600,74.38103247070312,0.25045475363731384,-0.12889257073402405,0.03787364438176155
1789156686790938600,74.44093872070313,0.08368854224681854,-0.03237585723400116,0.04398229718208313
1789156686850875100,74.50087524414063,-1.0134254693984985,-0.36102136969566345,-0.5467243790626526
1789156686910842400,74.56084228515626,-0.6053674817085266,0.3439171314239502,-0.5277875661849976
1789156686970809300,74.62080932617188,-0.4190535545349121,-0.16737708449363708,-0.12767083942890167
1789156687030715400,74.68071533203126,-0.3591887652873993,0.24495697021484375,0.013439035043120384
1789156687090682400,74.74068237304688,-0.35674530267715454,-0.01160643994808197,0.11484266817569733
1789156687150588400,74.80058837890626,-0.3878994286060333,0.036041051149368286,-0.042760565876960754
1789156687210494500,74.86049438476563,-0.19792033731937408,-0.02687807008624077,-0.15271630883216858
1789156687270431000,74.92043090820313,0.28099802136421204,0.0910189226269722,0.14538592100143433
1789156687330398000,74.98039794921876,0.5613851547241211,0.21807889640331268,0.22479841113090515
1789156687430190300,75.0801904296875,0.523511528968811,0.5791002511978149,-0.21013765037059784
1789156687490096400,75.14009643554688,0.34758231043815613,-0.44776421785354614,0.5907067060470581
1789156687550063400,75.2000634765625,0.15577064454555511,0.29993483424186707,-0.16432274878025055
1789156687610030600,75.26003051757813,0.2919935882091522,0.15454891324043274,0.17104226350784302
1789156687669997600,75.31999755859376,0.2919935882091522,-0.1111774742603302,0.36590829491615295
1789156687729903600,75.37990356445313,0.15515977144241333,-0.08185594528913498,0.08307767659425735
1789156687789840100,75.43984008789063,0.10445795953273773,-0.45692721009254456,0.1472185254096985
1789156687849776600,75.49977661132813,-0.06780604273080826,0.07819075137376785,-0.15332718193531036
1789156687909743600,75.55974365234376,-0.9419541954994202,-0.04642575979232788,-0.5229006409645081
1789156687969680100,75.61968017578126,-0.4343251883983612,0.2370157092809677,-0.3390302062034607
1789156688029647000,75.67964721679688,-0.2785545587539673,-0.15271630883216858,0.21502456068992615
1789156688089583600,75.73958349609374,-0.14294247329235077,0.07513642311096191,0.26022860407829285
1789156688149550800,75.79955078125,-0.02626720629632473,-0.07696902006864548,0.32009339332580566
1789156688209517800,75.85951782226563,0.029932396486401558,-0.14355333149433136,0.28649580478668213
