time,seconds_elapsed,z,y,x
1789156612605329400,0.255329345703125,6.421248912811279,6.335057735443115,-0.811634361743927
1789156612685285400,0.335285400390625,6.31829833984375,4.850652694702148,-0.014365210197865963
1789156612745252400,0.39525244140625,9.404424667358398,4.338293552398682,1.7884687185287476
1789156612805188900,0.45518896484375,5.279214859008789,6.167463779449463,0.1388636976480484
1789156612865125600,0.515125732421875,10.04846477508545,3.4189200401306152,2.078166961669922
1789156612925062100,0.575062255859375,9.57441234588623,4.800374507904053,-0.2968810200691223
1789156612985029000,0.635029052734375,8.336610794067383,5.03021764755249,-0.6536170840263367
1789156613044965600,0.694965576171875,9.184157371520996,4.256890773773193,-0.4692635238170624
1789156613104902100,0.754902099609375,9.560047149658203,4.218583583831787,0.16998831927776337
1789156613164777700,0.81477783203125,10.60391902923584,8.391676902770996,-5.805939197540283
1789156613224714200,0.87471435546875,10.47942066192627,3.8091750144958496,0.8212111592292786
1789156613284620000,0.9346201171875,7.615955829620361,4.917690277099609,-1.4077905416488647
1789156613344587300,0.994587158203125,10.070012092590332,4.141968727111816,-1.680729627609253
1789156613404462600,1.054462646484375,9.739612579345703,3.976768970489502,-1.1827356815338135
1789156613464368600,1.11436865234375,9.009381294250488,4.132391929626465,-0.6943184733390808
1789156613524305200,1.17430517578125,8.710105895996094,3.8379054069519043,-1.0031704902648926
1789156613584241700,1.23424169921875,8.667010307312012,4.108449935913086,-0.9816226959228516
1789156613644208600,1.294208740234375,8.968679428100586,3.9863457679748535,-0.7996633648872375
1789156613704145400,1.3541455078125,9.315838813781738,3.885789394378662,-0.7709329724311829
1789156613764082000,1.41408203125,8.743624687194824,3.8953661918640137,-0.7422025203704834
1789156613824049000,1.474048828125,8.949525833129883,3.861847400665283,-0.9050082564353943
1789156613883955000,1.533954833984375,9.069235801696777,3.823540210723877,-0.689530074596405
1789156613943860700,1.59386083984375,9.074024200439453,3.7924153804779053,-0.6775590777397156
1789156614003766800,1.653766845703125,8.971074104309082,3.773261785507202,-0.7038952708244324
1789156614063672800,1.7136728515625,9.026140213012695,3.7636849880218506,-0.7637503147125244
1789156614123609300,1.773609375,8.911218643188477,3.7876269817352295,-0.828393816947937
1789156614183545900,1.8335458984375,9.217676162719727,3.7612907886505127,-0.7445967197418213
1789156614243482400,1.893482421875,8.904036521911621,3.758896589279175,-0.730231523513794
1789156614303388400,1.953388427734375,9.349357604980469,3.9025487899780273,-0.727837324142456
1789156614363325000,2.013324951171875,8.932766914367676,3.799597978591919,-0.5291185975074768
1789156614463239400,2.113239501953125,9.030928611755371,3.8115692138671875,-0.6416460275650024
1789156614563123500,2.21312353515625,9.246406555175781,3.7253777980804443,-0.5171475410461426
1789156614623060000,2.27306005859375,9.155426979064941,3.6559460163116455,-0.47165772318840027
1789156614682996500,2.33299658203125,8.769960403442383,3.6367924213409424,-0.4357447028160095
1789156614742902500,2.392902587890625,8.779537200927734,3.6727054119110107,-0.6727706789970398
1789156614802808600,2.45280859375,9.0859956741333,3.73016619682312,-0.8355764150619507
1789156614862775600,2.512775634765625,9.191340446472168,3.576937437057495,-0.7038952708244324
1789156614922712000,2.572712158203125,9.378087997436523,3.6152446269989014,-0.8595184087753296
1789156614982648800,2.63264892578125,8.89685344696045,3.9480385780334473,-1.381454348564148
1789156615042554600,2.6925546875,9.033323287963867,3.6511576175689697,-0.8164227604866028
1789156615102460700,2.752460693359375,8.78193187713623,3.6080620288848877,-0.8379706144332886
1789156615162427600,2.812427734375,9.184157371520996,3.5936968326568604,-0.8164227604866028
1789156615222395000,2.872394775390625,9.126696586608887,3.6367924213409424,-1.0462661981582642
1789156615282361900,2.93236181640625,9.241618156433105,3.6080620288848877,-0.9169792532920837
1789156615342328800,2.992328857421875,9.023746490478516,3.6727054119110107,-0.8020575642585754
1789156615402265300,3.052265380859375,9.01895809173584,3.6367924213409424,-0.9050082564353943
1789156615462201900,3.112201904296875,9.02135181427002,3.6535518169403076,-1.0199298858642578
1789156615522138400,3.172138427734375,8.999804496765137,3.6104562282562256,-0.9648633003234863
1789156615582105600,3.232105712890625,8.939949035644531,3.6080620288848877,-0.9409212470054626
1789156615682050600,3.332050537109375,9.14585018157959,3.648763418197632,-0.950498104095459
1789156615741987000,3.391987060546875,9.038111686706543,3.6176388263702393,-0.8068459630012512
1789156615801923600,3.451923583984375,9.026140213012695,3.624821424484253,-0.811634361743927
1789156615861890600,3.511890625,9.119514465332031,3.620033025741577,-0.9433154463768005
1789156615921827000,3.5718271484375,9.107542991638184,3.6535518169403076,-0.9768342971801758
1789156615981763600,3.631763671875,9.08838939666748,3.5913026332855225,-0.8523358106613159
1789156616041700000,3.6917001953125,9.047688484191895,3.5697548389434814,-0.9433154463768005
1789156616101636900,3.751636962890625,8.96389102935791,3.6128504276275635,-0.9624691009521484
1789156616161573400,3.811573486328125,9.306262016296387,3.5218706130981445,-0.8834604024887085
1789156616221510000,3.871510009765625,10.103530883789062,3.598485231399536,-0.9481038451194763
1789156616281415700,3.931415771484375,8.154650688171387,3.7469255924224854,-0.586579442024231
1789156616341321700,3.99132177734375,9.138668060302734,3.7229835987091064,-0.6607996821403503
1789156616401289000,4.0512890625,8.796297073364258,3.732560396194458,-0.706289529800415
1789156616461194800,4.11119482421875,9.251194953918457,3.670311212539673,-0.7110779285430908
1789156616521100800,4.171100830078125,8.971074104309082,3.6320040225982666,-0.7086837291717529
1789156616581006800,4.2310068359375,8.98543930053711,3.7253777980804443,-0.871489405632019
1789156616640882400,4.29088232421875,9.131484985351562,3.6511576175689697,-0.8044517636299133
1789156616700819000,4.35081884765625,9.0859956741333,3.641580820083618,-0.8451532125473022
1789156616760755500,4.41075537109375,9.050082206726074,3.622427225112915,-0.8427590131759644
1789156616820661500,4.47066162109375,9.074024200439453,3.603273630142212,-0.7733271718025208
1789156616880567300,4.5305673828125,9.097966194152832,3.663128614425659,-0.8355764150619507
1789156616940534500,4.590534423828125,9.133879661560059,3.600879430770874,-0.7637503147125244
1789156617000440600,4.650440673828125,9.0859956741333,3.6104562282562256,-0.7948749661445618
1789156617060377000,4.710377197265625,9.344569206237793,3.5266590118408203,-0.9433154463768005
1789156617120313600,4.770313720703125,8.765172004699707,3.6774938106536865,-1.3862427473068237
1789156617180280600,4.830280517578125,8.437167167663574,3.485957622528076,-0.6631938815116882
1789156617240217000,4.890217041015625,9.749189376831055,3.4404678344726562,-0.6991068720817566
1789156617340131600,4.990131591796875,9.21288776397705,3.6320040225982666,-0.7852981686592102
1789156617439985200,5.089985107421875,9.006986618041992,3.488351821899414,-1.05105459690094
1789156617499921700,5.149921630859375,9.493009567260742,3.248931646347046,-0.7829039692878723
1789156617559888600,5.209888671875,9.035717010498047,3.406949043273926,-0.6799532771110535
1789156617619855600,5.269855712890625,8.877699851989746,3.4811692237854004,-0.9217676520347595
1789156617679761700,5.32976171875,8.956708908081055,3.488351821899414,-0.9409212470054626
1789156617739712300,5.389712158203125,8.978256225585938,3.3854012489318848,-1.0079588890075684
1789156617799648800,5.449648681640625,9.481039047241211,3.490746021270752,-1.036689281463623
1789156617859585300,5.509585205078125,9.32302188873291,3.3877954483032227,-1.2880805730819702
1789156617919521800,5.569521728515625,9.406818389892578,3.557783842086792,-0.4908113479614258
1789156617979427800,5.629427734375,8.942343711853027,3.533841609954834,-0.3423708379268646
1789156618039364400,5.6893642578125,9.090784072875977,3.6511576175689697,-0.4357447028160095
1789156618099300900,5.74930078125,8.310274124145508,3.93367338180542,0.11013327538967133
1789156618159207000,5.80920703125,8.650250434875488,4.711789131164551,-0.5386953949928284
1789156618219143400,5.869143310546875,9.071630477905273,4.671087741851807,0.07422025501728058
1789156618279110400,5.9291103515625,9.208099365234375,4.637568473815918,-0.2059013396501541
1789156618339016400,5.989016357421875,8.576030731201172,4.5394062995910645,-0.2537853717803955
1789156618398922500,6.048922607421875,8.597578048706055,4.623203277587891,0.29209262132644653
1789156618458859000,6.10885888671875,9.579200744628906,4.49870491027832,-0.47884035110473633
1789156618518765000,6.16876513671875,8.597578048706055,4.699818134307861,-0.33997663855552673
1789156618578701600,6.22870166015625,8.22887134552002,4.6471452713012695,-0.24181437492370605
1789156618638638000,6.28863818359375,8.990227699279785,4.72376012802124,-1.1444283723831177
1789156618718533000,6.368533203125,9.349357604980469,4.302380561828613,-0.9002198576927185
1789156618778469600,6.4284697265625,11.152191162109375,3.1268274784088135,-2.2577321529388428
1789156618838406100,6.48840625,9.964667320251465,3.4739866256713867,-1.9177556037902832
1789156618898312200,6.548312255859375,9.153033256530762,3.3854012489318848,-1.4508862495422363
1789156618958279200,6.608279052734375,9.150638580322266,3.3686418533325195,-1.5634137392044067
1789156619018246100,6.66824609375,7.714118003845215,3.8498764038085938,-0.6560112833976746
1789156619078213400,6.72821337890625,6.8378400802612305,4.37420654296875,-0.6607996821403503
1789156619138180400,6.788180419921875,7.240066051483154,4.503493309020996,-0.9481038451194763
1789156619198147300,6.848147216796875,9.002198219299316,4.2544965744018555,-1.4508862495422363
1789156619258083800,6.908083740234375,10.04846477508545,4.189853191375732,-0.9385270476341248
1789156619318020400,6.968020263671875,8.157045364379883,5.085284233093262,0.17717093229293823
1789156619377987300,7.0279873046875,9.816226959228516,4.247313976287842,-0.3280056416988373
1789156619437954600,7.08795458984375,9.5624418258667,4.311957359313965,-0.47405192255973816
1789156619497891000,7.14789111328125,8.456320762634277,4.235342979431152,-0.5051765441894531
1789156619557827600,7.20782763671875,8.054094314575195,4.338293552398682,0.2106897532939911
1789156619617794600,7.267794677734375,6.97430944442749,4.436455726623535,0.07182604819536209
1789156619677731000,7.32773095703125,7.608773231506348,4.663905143737793,0.014365210197865963
1789156619737667600,7.38766748046875,9.023746490478516,4.862623691558838,-0.9002198576927185
1789156619797604000,7.44760400390625,9.418789863586426,5.317522048950195,-0.8738836050033569
1789156619857540600,7.50754052734375,8.128314971923828,5.784391403198242,-1.1994950771331787
1789156619917477000,7.56747705078125,9.916783332824707,5.147533416748047,0.21547815203666687
1789156619977413600,7.62741357421875,9.406818389892578,3.7612907886505127,-2.3271639347076416
1789156620037380900,7.687380859375,8.106766700744629,4.180276393890381,-1.2497732639312744
1789156620097347800,7.747347900390625,7.934384346008301,3.8163576126098633,-1.292868971824646
1789156620157284400,7.807284423828125,8.015787124633789,3.9049429893493652,-0.9385270476341248
1789156620217251300,7.867251220703125,8.22887134552002,4.23773717880249,-0.9241618514060974
1789156620277187800,7.927187744140625,7.773972988128662,4.580107688903809,-1.0797849893569946
1789156620337185500,7.987185546875,9.627084732055664,4.824316501617432,-0.26575639843940735
1789156620397122000,8.0471220703125,9.277531623840332,4.833893299102783,-0.608127236366272
1789156620457058600,8.10705859375,10.177751541137695,4.608838081359863,1.2234370708465576
1789156620516964600,8.166964599609376,10.69489860534668,3.732560396194458,-0.8140285611152649
1789156620576901000,8.226901123046876,9.071630477905273,3.885789394378662,-0.08858546614646912
1789156620636807000,8.286806884765625,7.328651428222656,3.780444383621216,0.5171475410461426
1789156620696743400,8.346743408203125,6.7708024978637695,4.381389141082764,0.2537853717803955
1789156620756710700,8.406710693359376,8.180987358093262,4.460397720336914,-0.014365210197865963
1789156620816616700,8.46661669921875,8.801085472106934,4.833893299102783,-0.2944868206977844
1789156620876553200,8.52655322265625,10.002974510192871,4.7836151123046875,-0.5746083855628967
1789156620936520200,8.586520263671876,9.265560150146484,4.967968463897705,-1.5394717454910278
1789156620996487200,8.646487060546875,11.403582572937012,4.1611223220825195,-0.45010992884635925
1789156621056423700,8.706423583984375,9.445125579833984,3.5960910320281982,-1.7693150043487549
1789156621116329700,8.766329833984376,8.583212852478027,3.7876269817352295,-0.44771572947502136
1789156621176266200,8.826266357421876,8.362946510314941,3.5218706130981445,-0.1173158809542656
1789156621276211200,8.926211181640625,7.046135425567627,4.0294413566589355,-0.2968810200691223
1789156621336147700,8.986147705078125,8.588001251220703,4.616020679473877,0.10534487664699554
1789156621396084500,9.04608447265625,10.666168212890625,4.225766181945801,-0.15801730751991272
1789156621535977000,9.18597705078125,10.098742485046387,3.162740468978882,1.0462661981582642
1789156621595913500,9.24591357421875,10.517727851867676,3.117250680923462,-0.9911994934082031
1789156621655850000,9.30585009765625,7.496245384216309,3.620033025741577,1.2425906658172607
1789156621715817000,9.36581689453125,5.928043365478516,3.928884983062744,0.22505496442317963
1789156621775753500,9.42575341796875,7.144298076629639,4.302380561828613,0.18914192914962769
1789156621835659500,9.485659423828125,7.503427982330322,4.900930881500244,-0.3447650372982025
1789156621895626500,9.54562646484375,9.593565940856934,5.343858242034912,-0.2585737705230713
1789156621955532500,9.605532470703125,9.32541561126709,5.12119722366333,-2.2864625453948975
1789156622015499500,9.66549951171875,12.593501091003418,4.644751071929932,-0.7182605266571045
1789156622075466800,9.725466796875,10.098742485046387,3.397372245788574,-2.719813108444214
1789156622135372800,9.785372802734376,8.956708908081055,3.9600095748901367,-1.0007762908935547
1789156622195339800,9.84533984375,8.379706382751465,3.2321722507476807,-0.2322375625371933
1789156622255306800,9.905306640625,7.062894821166992,3.0334534645080566,-1.6855180263519287
1789156622315243300,9.9652431640625,7.675810813903809,3.667917013168335,-0.4620809257030487
1789156622375179800,10.0251796875,8.537723541259766,3.9887399673461914,-0.3758896589279175
1789156622435116300,10.0851162109375,9.48343276977539,4.2329487800598145,0.38307225704193115
1789156622495052800,10.145052734375,9.528923034667969,4.81473970413208,1.170764684677124
1789156622554989300,10.2049892578125,12.526463508605957,3.246537446975708,-0.6991068720817566
1789156622614925800,10.26492578125,10.759542465209961,3.0166940689086914,-0.811634361743927
1789156622674893000,10.32489306640625,7.929595947265625,3.9671921730041504,1.2258312702178955
1789156622734860000,10.384860107421876,7.108384609222412,4.125209331512451,1.0127472877502441
1789156622794796000,10.444796142578125,7.220912456512451,4.383783340454102,0.7445967197418213
1789156622914638600,10.564638671875,8.429984092712402,5.260061264038086,-0.4884171485900879
1789156622974575000,10.6245751953125,10.244789123535156,4.948814868927002,-0.5841852426528931
1789156623034511600,10.68451171875,10.137049674987793,4.8602294921875,0.8427590131759644
1789156623094448000,10.7444482421875,8.9064302444458,3.6822822093963623,-0.5626373887062073
1789156623154415000,10.8044150390625,9.17936897277832,4.54419469833374,-1.2976573705673218
1789156623214321200,10.864321044921875,8.544905662536621,3.203441858291626,-0.35913026332855225
1789156623274257700,10.924257568359375,7.6351094245910645,3.7612907886505127,-0.811634361743927
1789156623334163700,10.984163818359375,7.50582218170166,3.737348794937134,-0.4381389021873474
1789156623394130700,11.044130615234375,8.020575523376465,3.8522706031799316,0.17238251864910126
1789156623454067200,11.104067138671875,9.390059471130371,4.659116744995117,-0.33039984107017517
1789156623514003700,11.164003662109375,9.75637149810791,4.043806552886963,-0.26096799969673157
1789156623573970700,11.223970703125,11.348516464233398,4.3406877517700195,0.3016694188117981
1789156623633907500,11.283907470703125,10.374075889587402,2.513911724090576,0.09816227108240128
1789156623693844000,11.343843994140625,9.057265281677246,3.050212860107422,-0.5817909836769104
1789156623793666800,11.443666748046875,7.3885064125061035,3.531447410583496,-0.17477671802043915
1789156623853603300,11.503603271484375,6.861782073974609,4.24970817565918,-0.6344634294509888
1789156623913539800,11.563539794921875,8.322244644165039,4.230554580688477,-0.19871874153614044
1789156623973507000,11.623507080078125,9.914389610290527,4.548983097076416,-1.5753847360610962
1789156624033474000,11.68347412109375,11.21204662322998,4.441244125366211,-1.036689281463623
1789156624093410600,11.74341064453125,10.733205795288086,4.685452938079834,0.2561795711517334
1789156624153316600,11.803316650390625,9.751583099365234,2.5258827209472656,-1.2401964664459229
1789156624213283600,11.86328369140625,9.603142738342285,3.9480385780334473,-1.4628572463989258
1789156624273189600,11.923189697265625,8.358158111572266,3.0095114707946777,-0.026336219161748886
1789156624333156600,11.983156494140625,7.1921820640563965,3.533841609954834,-1.1300631761550903
1789156624393093000,12.043093017578125,7.491456985473633,3.7253777980804443,-0.8786720037460327
1789156624453060000,12.10306005859375,7.7883381843566895,3.9408559799194336,-1.1683704853057861
1789156624512996600,12.16299658203125,9.373299598693848,4.3406877517700195,-1.2449848651885986
1789156624572933000,12.22293310546875,10.141838073730469,4.46518611907959,-0.3064578175544739
1789156624632930800,12.282930908203125,10.8505220413208,4.458003520965576,0.22744916379451752
1789156624692897800,12.342897705078125,10.623072624206543,3.4835634231567383,0.1604115068912506
1789156624752864800,12.40286474609375,9.66539192199707,3.3925838470458984,-0.811634361743927
1789156624812832000,12.46283203125,8.4108304977417,3.4404678344726562,0.181959331035614
1789156624872737800,12.52273779296875,7.0341644287109375,3.7876269817352295,0.0694318488240242
1789156624932735500,12.582735595703125,6.809109687805176,4.321534156799316,-0.42856210470199585
1789156624992672000,12.642672119140625,7.623138427734375,4.280832767486572,-0.5578489899635315
1789156625052608500,12.7026083984375,9.136273384094238,4.534617900848389,-1.7334020137786865
1789156625112514600,12.7625146484375,9.41400146484375,4.831499099731445,-1.6136919260025024
1789156625172451000,12.822451171875,9.8784761428833,5.875370979309082,0.0454898327589035
1789156625232387600,12.8823876953125,9.904812812805176,4.410119533538818,-0.26096799969673157
1789156625292293600,12.942293701171875,8.640673637390137,4.8051629066467285,-0.9313444495201111
1789156625352230100,13.002230224609375,8.458714485168457,3.5386300086975098,-0.38546648621559143
1789156625412166700,13.062166748046875,8.135497093200684,3.3949780464172363,-1.3623007535934448
1789156625472133600,13.122133544921875,7.630321025848389,3.7876269817352295,-0.43095630407333374
1789156625532070100,13.182070068359375,7.556100368499756,4.010287761688232,-1.0845733880996704
1789156625592006700,13.242006591796875,9.931148529052734,4.24970817565918,-0.2322375625371933
1789156625651973600,13.3019736328125,10.831368446350098,3.845088005065918,0.38307225704193115
1789156625711910100,13.36191015625,9.576807022094727,4.699818134307861,0.6057330369949341
1789156625771847000,13.421846923828125,10.402806282043457,3.555389642715454,-1.048660397529602
1789156625831783400,13.481783447265625,9.437943458557129,3.1268274784088135,-1.2210428714752197
1789156625891720000,13.541719970703125,9.41639518737793,2.999934673309326,0.023942016065120697
1789156625951656400,13.601656494140625,8.219294548034668,3.265691041946411,-0.3519476354122162
1789156626071560000,13.721559814453125,7.206547260284424,4.347870349884033,-0.20111294090747833
1789156626131527000,13.78152685546875,9.423578262329102,4.525041103363037,-1.1540051698684692
1789156626191494000,13.841493896484375,10.520122528076172,4.551377296447754,-0.6272808313369751
1789156626251430700,13.9014306640625,9.90241813659668,5.284003257751465,-0.009576806798577309
1789156626311397600,13.961397705078125,11.080365180969238,3.512293815612793,-1.2665326595306396
1789156626371303700,14.0213037109375,9.50498104095459,4.458003520965576,-1.8148049116134644
1789156626431209500,14.08120947265625,7.85537576675415,3.756502389907837,-0.07182604819536209
1789156626491146000,14.14114599609375,7.3669586181640625,3.823540210723877,-0.45489832758903503
1789156626551082800,14.201082763671875,7.879317760467529,3.9600095748901367,-0.42616790533065796
1789156626611049700,14.2610498046875,7.654263019561768,4.338293552398682,-0.6512228846549988
1789156626710933800,14.360933837890625,9.495404243469238,4.359841346740723,-0.5339069962501526
1789156626770870300,14.420870361328125,10.943896293640137,3.9049429893493652,0.15801730751991272
1789156626830806800,14.480806884765625,9.591172218322754,4.649539470672607,0.6512228846549988
1789156626890743300,14.540743408203125,10.259154319763184,4.000710964202881,-0.3902548849582672
1789156626950679800,14.6006796875,8.389283180236816,3.687070608139038,0.13407529890537262
1789156627010646800,14.660646728515625,7.180211067199707,3.737348794937134,-0.44532153010368347
1789156627070613800,14.72061376953125,7.022193431854248,4.10366153717041,-0.17956513166427612
1789156627130581000,14.7805810546875,7.328651428222656,4.244919776916504,-0.20350714027881622
1789156627230495500,14.88049560546875,10.08198356628418,4.656722068786621,-1.3431471586227417
1789156627290462500,14.94046240234375,10.714052200317383,4.704606533050537,-2.52109432220459
1789156627390438100,15.040438232421875,10.342951774597168,3.361459255218506,-1.5298948287963867
1789156627450405000,15.100405029296875,9.27034854888916,4.400542736053467,-1.0821791887283325
1789156627510341600,15.160341552734375,8.322244644165039,3.1268274784088135,-0.8930372595787048
1789156627570278100,15.220278076171875,7.338228225708008,3.8738183975219727,-1.0342950820922852
1789156627630214700,15.280214599609375,6.734889507293701,4.158728122711182,-1.0893617868423462
1789156627690181600,15.340181640625,8.42040729522705,4.3622355461120605,-0.7182605266571045
1789156627750148900,15.40014892578125,9.150638580322266,4.637568473815918,-1.0223240852355957
1789156627810077700,15.46007763671875,10.256759643554688,4.314351558685303,-0.8140285611152649
1789156627869983700,15.519983642578126,10.201693534851074,3.998316764831543,0.2537853717803955
1789156627929950700,15.57995068359375,11.219228744506836,2.8634653091430664,-0.9648633003234863
1789156627989887200,15.63988720703125,8.59997272491455,3.1890766620635986,-0.5985504388809204
1789156628049854200,15.699854248046876,7.747636795043945,3.4141316413879395,-0.31364041566848755
1789156628109790700,15.759790771484376,6.555324077606201,3.797203779220581,-0.40701428055763245
1789156628169696800,15.81969677734375,7.733271598815918,4.1395745277404785,-0.4141969084739685
1789156628229602800,15.879602783203126,8.53532886505127,4.58968448638916,-0.8858546018600464
1789156628289539300,15.939539306640626,9.768342971801758,4.546588897705078,-1.2832920551300049
1789156628349475800,15.999475830078126,9.751583099365234,5.070919036865234,-2.3774423599243164
1789156628409442800,16.05944287109375,12.480973243713379,3.5482068061828613,-0.12449848651885986
1789156628469410000,16.11941015625,9.825803756713867,3.579331636428833,-1.9177556037902832
1789156628529315800,16.17931591796875,8.192957878112793,3.141192674636841,0.15322890877723694
1789156628589283000,16.239282958984376,7.833827972412109,3.050212860107422,-0.8762778043746948
1789156628649219600,16.299219482421876,6.890512466430664,3.246537446975708,-0.6560112833976746
1789156628709156000,16.359156005859376,7.9176249504089355,3.5482068061828613,-0.6727706789970398
1789156628769123000,16.419123046875,9.406818389892578,3.9600095748901367,-0.49559974670410156
1789156628829029000,16.479029052734376,10.230423927307129,4.321534156799316,-0.4596867263317108
1789156628888935200,16.53893505859375,11.233593940734863,4.182670593261719,0.6344634294509888
1789156628948902100,16.598902099609376,12.100295066833496,1.7812861204147339,-0.9385270476341248
1789156629008808200,16.65880810546875,8.937555313110352,3.0358476638793945,-0.19632454216480255
1789156629068744700,16.71874462890625,7.079654216766357,3.2154128551483154,-0.5003881454467773
1789156629128681200,16.77868115234375,6.478709697723389,3.5936968326568604,-0.272938996553421
1789156629188556500,16.838556640625,7.690176010131836,3.8522706031799316,-0.10534487664699554
1789156629248493000,16.8984931640625,8.65743350982666,4.309563159942627,-0.7589619159698486
1789156629308429800,16.958429931640627,10.295066833496094,4.639962673187256,-0.9792284965515137
1789156629368366300,17.018366455078127,10.137049674987793,4.946420669555664,-1.316810965538025
1789156629428302800,17.078302734375,11.621455192565918,3.909731388092041,0.002394201699644327
1789156629488239400,17.1382392578125,9.720458984375,3.40216064453125,-2.1571757793426514
1789156629548145400,17.1981455078125,8.959102630615234,3.4189200401306152,0.11252748221158981
1789156629648029400,17.298029541015627,7.2113356590271,3.294421434402466,-0.7445967197418213
1789156629707966000,17.357966064453127,6.303933143615723,3.8522706031799316,-0.6871358752250671
1789156629767933000,17.417932861328126,8.341399192810059,3.995922565460205,-0.8403648138046265
1789156629827869400,17.477869384765626,9.643844604492188,4.110844135284424,-0.17477671802043915
1789156629887775500,17.537775390625,10.453084945678711,4.37420654296875,-0.6057330369949341
1789156629947712000,17.5977119140625,11.171344757080078,4.189853191375732,0.6488286852836609
1789156630007648500,17.6576484375,10.805032730102539,2.8347349166870117,-1.6112977266311646
1789156630067585000,17.7175849609375,7.905653953552246,3.265691041946411,0.3926490843296051
1789156630127552000,17.777552001953126,7.108384609222412,3.464409828186035,-0.7015010714530945
1789156630187458000,17.8374580078125,6.744466304779053,3.6774938106536865,-0.6799532771110535
1789156630247394600,17.89739453125,7.99184513092041,4.113238334655762,-0.3974374830722809
1789156630307361500,17.957361572265626,8.98543930053711,4.46518611907959,-1.4101848602294922
1789156630367328500,18.01732861328125,12.02607536315918,4.424484729766846,-0.9385270476341248
1789156630427265300,18.077265380859377,9.68933391571045,4.541800498962402,-0.5793967843055725
1789156630487232300,18.137232177734376,12.84968090057373,2.5282769203186035,-2.1763293743133545
1789156630547199200,18.19719921875,9.0859956741333,3.8091750144958496,-1.4652514457702637
1789156630607135700,18.2571357421875,7.572859764099121,2.7988216876983643,-0.8307880163192749
1789156630667011300,18.31701123046875,6.97430944442749,3.3662476539611816,-1.0007762908935547
1789156630726947800,18.37694775390625,5.992686748504639,3.5434184074401855,-1.314416766166687
1789156630786884400,18.43688427734375,7.936778545379639,4.10366153717041,-0.7829039692878723
1789156630846881800,18.4968818359375,8.923190116882324,4.565742492675781,-0.8978256583213806
1789156630906818300,18.556818359375,10.44350814819336,4.501099109649658,-1.091755986213684
1789156630966754800,18.6167548828125,10.108319282531738,4.259284973144531,0.7134721279144287
1789156631026691300,18.67669140625,11.669339179992676,2.782062292098999,-0.8379706144332886
1789156631086627800,18.7366279296875,9.100360870361328,3.337517261505127,-0.26096799969673157
1789156631146534000,18.796533935546876,7.762001991271973,3.19865345954895,-0.5746083855628967
1789156631206470400,18.856470458984376,6.253654956817627,3.845088005065918,-0.15562310814857483
1789156631266407000,18.916406982421876,7.1251444816589355,4.094084739685059,-0.49559974670410156
1789156631326343400,18.976343505859376,8.070854187011719,4.436455726623535,-0.7733271718025208
1789156631386280000,19.036280029296876,10.14902114868164,4.697423934936523,-1.479616641998291
1789156631446247200,19.0962470703125,11.228805541992188,4.924872875213623,-2.1164743900299072
1789156631506183700,19.15618359375,11.54005241394043,4.2760443687438965,-0.2298433631658554
1789156631566150700,19.216150634765626,10.165780067443848,2.9759926795959473,-2.38462495803833
1789156631626087200,19.276087158203126,8.650250434875488,3.3686418533325195,0.24420857429504395
1789156631686054100,19.33605419921875,7.841010570526123,3.0573954582214355,-0.912190854549408
1789156631745960200,19.395960205078126,7.371747016906738,3.0597896575927734,-0.629675030708313
1789156631805896700,19.455896728515626,6.912060260772705,3.581725835800171,-0.7086837291717529
1789156631865802800,19.515802734375,8.705317497253418,4.060565948486328,-0.8595184087753296
1789156631925739300,19.5757392578125,9.77791976928711,3.952826976776123,-0.035913024097681046
1789156631985706200,19.635706298828126,9.634267807006836,4.41969633102417,-0.13407529890537262
1789156632045673500,19.695673583984377,12.983756065368652,3.423708438873291,0.5722141861915588
1789156632105610000,19.75560986328125,11.578359603881836,2.473210334777832,-1.41257905960083
1789156632165515800,19.815515869140626,8.327033042907715,3.021482467651367,0.4692635238170624
1789156632225421800,19.875421875,6.773196697235107,2.935291290283203,0.08140286058187485
1789156632285389000,19.93538916015625,6.196194171905518,3.4380736351013184,-0.021547814831137657
1789156632345325600,19.99532568359375,7.19936466217041,3.6727054119110107,-0.2753331959247589
1789156632405292500,20.05529248046875,8.53532886505127,4.165910720825195,-0.6512228846549988
1789156632465229000,20.11522900390625,10.417171478271484,4.6255974769592285,-0.8882488012313843
1789156632525165600,20.17516552734375,9.928754806518555,4.8937482833862305,-1.1300631761550903
1789156632585102000,20.23510205078125,11.899182319641113,3.998316764831543,-1.6280571222305298
1789156632645069000,20.295069091796876,11.037269592285156,2.449268341064453,-3.181894063949585
1789156632704975000,20.35497509765625,8.595184326171875,3.1459810733795166,-1.0295066833496094
1789156632764911600,20.41491162109375,8.221688270568848,2.655169725418091,-0.8451532125473022
1789156632824817700,20.474817626953126,7.548917770385742,2.6791117191314697,-0.8092401623725891
1789156632884767500,20.534767578125,6.878541469573975,3.529053211212158,-0.9145850539207458
1789156632944734500,20.594734375,8.578424453735352,4.158728122711182,-0.8188169598579407
1789156633004671000,20.6546708984375,10.019734382629395,3.869029998779297,0.2082955539226532
1789156633064607500,20.714607421875,11.652579307556152,4.206612586975098,0.26815059781074524
1789156633124574500,20.774574462890627,11.425130844116211,3.318363666534424,0.21308395266532898
1789156633184511000,20.834510986328127,9.461885452270508,3.069366693496704,-1.0989385843276978
1789156633244417000,20.8944169921875,7.797914981842041,3.1699230670928955,-1.2497732639312744
1789156633304353500,20.954353515625,7.01979923248291,3.31118106842041,-1.2186486721038818
1789156633364259600,21.014259521484377,6.938396453857422,3.3063924312591553,-1.3551181554794312
1789156633424226600,21.0742265625,7.060500621795654,4.170699596405029,-1.359906554222107
1789156633484132600,21.134132568359377,9.02135181427002,4.1611223220825195,-1.5897499322891235
1789156633544069000,21.194069091796877,9.86650562286377,4.587290287017822,-2.1068975925445557
1789156633604005600,21.254005615234377,10.254365921020508,4.850652694702148,-2.382230758666992
1789156633663942100,21.313942138671877,12.737153053283691,2.5067291259765625,-1.8818424940109253
1789156633723878700,21.373878662109377,11.597513198852539,2.937685489654541,-2.693476915359497
1789156633783876400,21.43387646484375,9.035717010498047,1.8698714971542358,-0.3471592366695404
1789156633843843300,21.49384326171875,7.795520782470703,2.1284453868865967,-0.3256114423274994
1789156633903719000,21.553718994140624,6.687005519866943,2.540247917175293,-0.7709329724311829
1789156633963625000,21.613625,8.619126319885254,3.0095114707946777,0.20111294090747833
1789156634023530800,21.67353076171875,8.78193187713623,3.732560396194458,-0.2753331959247589
1789156634083498000,21.733498046875,10.512939453125,3.603273630142212,-0.3471592366695404
1789156634143404000,21.793404052734374,10.946290016174316,3.995922565460205,1.5442601442337036
1789156634203371000,21.85337109375,11.736376762390137,2.4468741416931152,-0.9888052940368652
1789156634263338000,21.913337890625,9.526528358459473,2.983175277709961,-0.2537853717803955
1789156634323305000,21.973304931640627,7.682993412017822,2.8993782997131348,-0.6224924325942993
1789156634383241500,22.033241455078127,7.094019412994385,3.2752678394317627,-0.0071826050989329815
1789156634443178000,22.093177978515627,7.094019412994385,3.576937437057495,-0.5171475410461426
1789156634543031600,22.193031494140627,9.169792175292969,4.163516521453857,-0.7086837291717529
1789156634602968000,22.252968017578127,10.448296546936035,4.41969633102417,-0.933738648891449
1789156634662874000,22.3128740234375,10.69489860534668,4.333505153656006,-1.5705963373184204
1789156634722810600,22.372810546875,11.504138946533203,2.542642116546631,-2.10210919380188
1789156634782747100,22.4327470703125,9.835380554199219,3.7924153804779053,-1.845929503440857
1789156634842653200,22.492653076171877,8.003816604614258,2.3942017555236816,-0.9720458984375
1789156634902559200,22.552559326171874,7.608773231506348,2.765302896499634,-0.9385270476341248
1789156634962495700,22.612495849609374,6.744466304779053,2.7533318996429443,-1.8100165128707886
1789156635022401800,22.67240185546875,9.26795482635498,2.9927520751953125,-0.45010992884635925
1789156635082307800,22.732307861328124,8.913613319396973,3.624821424484253,0.20111294090747833
1789156635142274800,22.79227490234375,10.529699325561523,3.471592426300049,0.5434837937355042
1789156635202180900,22.852180908203124,9.96945571899414,3.3039982318878174,3.047818660736084
1789156635262117400,22.912117431640624,10.45547866821289,1.5729905366897583,0.4429273009300232
1789156635321992700,22.97199267578125,10.773907661437988,2.719813108444214,-0.16998831927776337
1789156635381960000,23.0319599609375,9.260771751403809,2.542642116546631,-0.5913678407669067
1789156635441865700,23.09186572265625,7.117961883544922,3.2393548488616943,-0.12689268589019775
1789156635501802200,23.15180224609375,7.299921035766602,3.5458126068115234,0.12689268589019775
1789156635561738800,23.21173876953125,8.281543731689453,3.88818359375,0.3519476354122162
1789156635621675500,23.271675537109374,10.577583312988281,4.086902141571045,-0.4884171485900879
1789156635681642500,23.331642578125,10.982203483581543,4.548983097076416,-0.27054479718208313
1789156635741579000,23.3915791015625,11.796232223510742,3.995922565460205,0.5434837937355042
1789156635801546000,23.4515458984375,9.334992408752441,3.1052796840667725,-1.702277421951294
1789156635861482500,23.511482421875,8.497021675109863,3.3470940589904785,0.44771572947502136
1789156635921388500,23.571388427734377,7.745242595672607,2.6862943172454834,-0.6512228846549988
1789156635981355500,23.63135546875,8.250418663024902,2.806004285812378,-0.16519992053508759
1789156636041292000,23.6912919921875,6.871358871459961,3.5936968326568604,-0.2777273952960968
1789156636101228500,23.751228515625,9.01895809173584,3.8379054069519043,-0.1412578970193863
1789156636161165000,23.8111650390625,10.94150161743164,3.442862033843994,-0.33997663855552673
1789156636221071000,23.871071044921877,9.801861763000488,3.7612907886505127,0.8044517636299133
1789156636281007600,23.931007568359377,12.856863021850586,2.559401512145996,0.19871874153614044
1789156636340944100,23.990944091796877,9.775525093078613,2.9448680877685547,-1.357512354850769
1789156636400911400,24.050911376953124,8.001421928405762,3.450044631958008,0.21308395266532898
1789156636460878300,24.11087841796875,7.003039836883545,3.823540210723877,-0.49799394607543945
1789156636520814800,24.17081494140625,7.800309181213379,3.2585084438323975,-0.09816227108240128
1789156636580751400,24.23075146484375,6.670246124267578,4.177882194519043,0.272938996553421
1789156636640748800,24.290748779296877,7.987056732177734,4.20421838760376,-0.17717093229293823
1789156636700654800,24.35065478515625,10.60391902923584,4.125209331512451,-1.7717092037200928
1789156636760621800,24.410621826171877,12.524068832397461,3.9025487899780273,-0.2082955539226532
1789156636820589000,24.470589111328124,10.517727851867676,2.913743495941162,-1.1659762859344482
1789156636880556000,24.53055615234375,9.023746490478516,3.691859006881714,-0.4668693244457245
1789156636940492500,24.590492431640627,7.5632829666137695,2.343923568725586,-0.05027823522686958
1789156637000398600,24.650398681640624,8.257601737976074,2.5306711196899414,-0.7493851184844971
1789156637060304600,24.7103046875,6.7061591148376465,3.201047658920288,-1.115697979927063
1789156637120241200,24.7702412109375,8.741230010986328,3.5697548389434814,-0.42616790533065796
1789156637180177700,24.830177734375,10.170568466186523,3.7469255924224854,-0.08140286058187485
1789156637240083700,24.890083740234374,11.221623420715332,3.399766445159912,-0.6129156351089478
1789156637300020200,24.950020263671874,10.625467300415039,3.751713991165161,0.9457096457481384
1789156637359926000,25.009926025390627,11.413159370422363,2.296039342880249,-0.15801730751991272
1789156637419862500,25.069862548828127,8.69334602355957,2.853888511657715,-0.5817909836769104
1789156637479768600,25.1297685546875,6.766014099121094,3.246537446975708,0.05985504388809204
1789156637539705000,25.189705078125,5.992686748504639,3.9217023849487305,0.040701430290937424
1789156637599672300,25.24967236328125,7.546523571014404,3.8283286094665527,-0.10773907601833344
1789156637659608800,25.30960888671875,9.318233489990234,4.120420932769775,-0.3016694188117981
1789156637719575800,25.369575927734374,11.70046329498291,4.108449935913086,-1.2042834758758545
1789156637779542800,25.429542724609377,10.168174743652344,4.7405195236206055,-2.4396915435791016
1789156637839448800,25.48944873046875,12.236764907836914,3.6750996112823486,-0.569819986820221
1789156637899394300,25.549394287109376,10.199298858642578,3.2393548488616943,-2.5091233253479004
1789156637959300400,25.60930029296875,9.21288776397705,2.7940332889556885,0.47644615173339844
1789156638019206400,25.669206298828126,6.528987884521484,2.7078421115875244,-0.28730419278144836
1789156638079173400,25.72917333984375,7.0341644287109375,3.203441858291626,-0.4381389021873474
1789156638139140400,25.789140380859376,7.24485445022583,4.711789131164551,-0.5027823448181152
1789156638199046400,25.84904638671875,10.491392135620117,4.4508209228515625,-0.3064578175544739
1789156638258983000,25.90898291015625,10.125079154968262,4.177882194519043,1.5203180313110352
1789156638318919400,25.96891943359375,9.004592895507812,3.955221176147461,1.6160861253738403
1789156638378856000,26.02885595703125,10.474632263183594,3.07415509223938,0.3878606855869293
1789156638438823000,26.088822998046876,10.639832496643066,3.3901896476745605,-0.9313444495201111
1789156638498698500,26.148698486328126,8.092401504516602,3.557783842086792,0.13407529890537262
1789156638558665500,26.20866552734375,7.316680431365967,3.552995204925537,0.5650315880775452
1789156638618602000,26.26860205078125,4.955997467041016,4.352658748626709,0.21787235140800476
1789156638678569000,26.32856884765625,7.450755596160889,4.256890773773193,0.1412578970193863
1789156638738505700,26.388505615234376,8.899248123168945,5.214571475982666,-0.9696516990661621
1789156638798472700,26.44847265625,10.424354553222656,4.908113479614258,-1.4317326545715332
1789156638858409200,26.5084091796875,11.51850414276123,4.924872875213623,-0.31124621629714966
1789156638918406700,26.56840673828125,11.42752456665039,2.8107926845550537,-1.9847931861877441
1789156638978343200,26.62834326171875,9.904812812805176,3.646369218826294,-0.22266076505184174
1789156639038249200,26.688249267578126,7.1706342697143555,2.999934673309326,-0.24899697303771973
1789156639098155300,26.7481552734375,7.101202011108398,3.3734302520751953,-0.4118026793003082
1789156639158091800,26.808091796875,7.910442352294922,3.7469255924224854,-1.0031704902648926
1789156639218028300,26.8680283203125,9.560047149658203,3.950432777404785,-0.6440402865409851
1789156639277964800,26.92796484375,10.575188636779785,3.670311212539673,0.08619125932455063
1789156639337962500,26.98796240234375,8.760383605957031,4.4077253341674805,0.9696516990661621
1789156639397868300,27.047868408203126,10.441113471984863,2.918531894683838,-0.3256114423274994
1789156639457835500,27.10783544921875,10.45547866821289,3.24414324760437,-1.2114660739898682
1789156639517741600,27.167741455078126,8.628703117370605,3.2345664501190186,0.6224924325942993
1789156639577678000,27.227677978515626,7.572859764099121,3.4524388313293457,-0.2513911724090576
1789156639637614600,27.287614501953126,6.742072105407715,3.687070608139038,-0.31364041566848755
1789156639697581600,27.34758154296875,6.730101108551025,4.223371982574463,-0.272938996553421
1789156639757457200,27.40745703125,9.859322547912598,4.331110954284668,-0.23942017555236816
1789156639817454600,27.46745458984375,13.453019142150879,4.197035789489746,-2.5665841102600098
1789156639877360600,27.527360595703126,8.346187591552734,4.400542736053467,0.8259995579719543
1789156639937297200,27.587297119140626,10.668562889099121,2.765302896499634,-2.1475989818573
1789156639997264100,27.64726416015625,9.911994934082031,3.552995204925537,-1.5275006294250488
1789156640057170200,27.707170166015626,7.424419403076172,3.2106244564056396,0.272938996553421
1789156640117106700,27.767106689453126,6.9695210456848145,3.375824451446533,-0.8068459630012512
1789156640177043200,27.827043212890626,6.959944248199463,3.8522706031799316,-0.9457096457481384
1789156640236979700,27.886979736328126,8.734047889709473,4.125209331512451,-0.7350199222564697
1789156640296916200,27.946916259765626,10.41956615447998,3.869029998779297,0.6967126727104187
1789156640356852700,28.006852783203126,10.307038307189941,4.189853191375732,0.811634361743927
1789156640416758800,28.0667587890625,11.676521301269531,2.9017724990844727,-0.011971008032560349
1789156640476695300,28.1266953125,7.807491779327393,3.797203779220581,0.6751648783683777
1789156640536631800,28.1866318359375,8.355764389038086,3.268085241317749,0.9433154463768005
1789156640596598800,28.246598876953126,7.999027729034424,3.337517261505127,-0.272938996553421
1789156640656535300,28.306535400390626,6.835445880889893,3.8570590019226074,-0.6320692300796509
1789156640716471800,28.366471923828126,8.774748802185059,4.422090530395508,-0.45010992884635925
1789156640776408300,28.426408203125,9.330204010009766,4.730942726135254,0.3734954595565796
1789156640836375600,28.48637548828125,10.769119262695312,4.821922302246094,-2.5689783096313477
1789156640896312000,28.54631201171875,11.39161205291748,4.503493309020996,0.12210428714752197
1789156640956218000,28.606218017578126,11.204863548278809,2.715024709701538,-2.1571757793426514
1789156641016154600,28.666154541015626,9.320627212524414,3.380612850189209,0.05506663769483566
1789156641076091100,28.726091064453126,6.84981107711792,2.786850690841675,0.0933738648891449
1789156641136027600,28.786027587890626,6.665457725524902,3.2321722507476807,0.31842881441116333
1789156641195964200,28.845964111328126,6.658275127410889,4.168305397033691,-0.09816227108240128
1789156641255961600,28.905961669921876,9.08838939666748,4.113238334655762,1.0438719987869263
1789156641315867600,28.96586767578125,9.856928825378418,4.194641590118408,0.730231523513794
1789156641375834600,29.025834716796876,10.17296314239502,4.153939723968506,0.8020575642585754
1789156641435771100,29.085771240234376,12.571952819824219,2.6168625354766846,-0.6200982332229614
1789156641495677200,29.14567724609375,10.132261276245117,2.980781078338623,-1.7070658206939697
1789156641555644200,29.20564404296875,7.390900611877441,3.1962592601776123,0.4189853072166443
1789156641615581000,29.265580810546876,6.694188117980957,2.999934673309326,0.021547814831137657
1789156641675517400,29.325517333984376,7.587224960327148,3.047818660736084,0.6919242739677429
1789156641735423200,29.38542333984375,8.221688270568848,4.067748546600342,-0.4405331015586853
1789156641795390500,29.445390380859376,10.975020408630371,4.333505153656006,-0.3711012601852417
1789156641855357400,29.505357421875,11.209651947021484,4.4292731285095215,-1.501164436340332
1789156641915263500,29.565263427734376,10.223240852355957,4.003105163574219,0.07422025501728058
1789156641975230500,29.62523046875,9.921571731567383,2.9257144927978516,-0.9385270476341248
1789156642075084000,29.725083984375,8.35336971282959,2.492363929748535,0.47644615173339844
1789156642135051000,29.785051025390626,8.188169479370117,2.604891538619995,-0.31603461503982544
1789156642194957000,29.84495703125,6.552929878234863,2.9975404739379883,-0.35434186458587646
1789156642254893600,29.9048935546875,8.75080680847168,3.7612907886505127,0.3878606855869293
1789156642314830000,29.964830078125,9.461885452270508,4.546588897705078,1.01753568649292
1789156642374766600,30.0247666015625,11.267112731933594,4.266467571258545,-0.24660277366638184
1789156642434733600,30.084733642578126,11.707646369934082,3.5721490383148193,-0.31842881441116333
1789156642494700800,30.14470068359375,10.453084945678711,1.9752163887023926,-0.4812345504760742
1789156642554606600,30.204606689453126,6.476315498352051,2.47560453414917,0.5841852426528931
1789156642614543000,30.264543212890626,8.142680168151855,2.5067291259765625,0.3519476354122162
1789156642674449200,30.32444921875,7.4100542068481445,3.2369606494903564,-0.24899697303771973
1789156642734385700,30.3843857421875,7.647080421447754,4.266467571258545,-0.18914192914962769
1789156642794322200,30.444322265625,9.830592155456543,4.405331134796143,-1.3934253454208374
1789156642854319900,30.50431982421875,12.24394702911377,3.8307228088378906,-2.070984363555908
1789156642914273000,30.56427294921875,10.251971244812012,3.9480385780334473,0.5051765441894531
1789156642974240300,30.624240234375,11.130643844604492,1.7094600200653076,-2.145204782485962
1789156643034176800,30.6841767578125,9.169792175292969,3.6774938106536865,-0.4381389021873474
1789156643094113300,30.74411328125,6.947973251342773,2.367865562438965,0.5386953949928284
1789156643154080300,30.804080322265627,7.230489253997803,2.341529369354248,-1.4437036514282227
1789156643214016800,30.864016845703127,6.9024834632873535,3.07415509223938,-0.6440402865409851
1789156643273922800,30.9239228515625,8.20492935180664,3.3925838470458984,-0.9385270476341248
1789156643333828900,30.983828857421877,11.597513198852539,3.162740468978882,-0.4572925269603729
1789156643393734700,31.043734619140626,11.319786071777344,3.35667085647583,0.7757213711738586
1789156643453640700,31.103640625,12.12902545928955,2.1595699787139893,-0.6488286852836609
1789156643513608000,31.16360791015625,10.362105369567871,1.8602946996688843,-1.1827356815338135
1789156643573513700,31.223513671875,7.117961883544922,1.9943699836730957,-0.4620809257030487
1789156643633481000,31.28348095703125,8.109161376953125,2.8371291160583496,-0.5267243981361389
1789156643693448000,31.343447998046877,7.443572998046875,3.4811692237854004,0.4692635238170624
1789156643753415000,31.403414794921876,8.803479194641113,3.9169139862060547,-0.033518824726343155
1789156643813321000,31.463321044921877,10.919954299926758,3.8594532012939453,-0.5770025849342346
1789156643873257500,31.523257568359377,12.911930084228516,3.512293815612793,-1.2545616626739502
1789156643933163500,31.58316357421875,11.487380027770996,3.028665065765381,-0.5817909836769104
1789156643993161000,31.643160888671876,8.765172004699707,2.3487119674682617,-1.580173134803772
1789156644053097500,31.703097412109376,7.805097579956055,3.117250680923462,-0.47405192255973816
1789156644113003500,31.76300341796875,7.50582218170166,2.123656988143921,0.3734954595565796
1789156644172940000,31.82293994140625,6.720524311065674,2.7246015071868896,-0.4620809257030487
1789156644232876500,31.88287646484375,7.613561630249023,3.514688014984131,-0.5578489899635315
1789156644292813000,31.94281298828125,8.286332130432129,3.6798880100250244,-0.569819986820221
1789156644352749600,32.00274951171875,11.781867027282715,3.3734302520751953,-0.29209262132644653
1789156644412686000,32.06268603515625,13.474567413330078,2.6791117191314697,-0.43335050344467163
1789156644472622600,32.12262255859375,10.108319282531738,2.4420857429504395,0.1388636976480484
1789156644532528600,32.18252856445312,9.770736694335938,2.2457611560821533,-0.40222588181495667
1789156644592465200,32.24246508789062,8.389283180236816,2.5234885215759277,0.2059013396501541
1789156644652432400,32.30243237304688,7.129932880401611,3.0166940689086914,-0.014365210197865963
1789156644712338200,32.36233813476562,7.879317760467529,3.426102638244629,-0.22744916379451752
1789156644772274700,32.42227465820312,9.272743225097656,3.955221176147461,-0.40701428055763245
1789156644832211500,32.48221142578125,9.464279174804688,3.9887399673461914,-0.4165911078453064
1789156644892148000,32.54214794921875,10.867281913757324,3.8738183975219727,-0.8619126081466675
1789156644952084500,32.60208447265625,8.959102630615234,3.2369606494903564,1.5538369417190552
1789156645011959800,32.66195971679687,10.077195167541504,2.387019157409668,-0.7996633648872375
1789156645071865900,32.72186596679688,9.617507934570312,3.3710360527038574,0.05985504388809204
1789156645131772000,32.78177197265625,8.042123794555664,2.52109432220459,0.47884035110473633
1789156645191739000,32.84173876953125,7.026981830596924,2.9305028915405273,0.40462008118629456
1789156645251645000,32.90164501953125,8.968679428100586,3.2130186557769775,-0.3208230137825012
1789156645311612000,32.96161181640625,9.799467086791992,3.4572272300720215,-0.44532153010368347
1789156645411496000,33.06149584960937,10.402806282043457,4.307168960571289,-0.14365209639072418
1789156645471463000,33.121462890625,9.77791976928711,3.584120035171509,0.9624691009521484
1789156645531399700,33.18139965820313,10.615890502929688,2.604891538619995,-1.01753568649292
1789156645591305500,33.24130541992187,8.681375503540039,2.9879636764526367,0.49559974670410156
1789156645651242000,33.30124194335937,7.292738437652588,3.3494882583618164,0.33758243918418884
1789156645711209200,33.36120922851563,6.660669326782227,3.6966474056243896,0.33039984107017517
1789156645771145700,33.42114575195313,7.347805023193359,3.737348794937134,-0.6488286852836609
1789156645831082200,33.48108227539063,8.803479194641113,4.211400985717773,-0.11971008777618408
1789156645890988300,33.54098828125,10.917559623718262,4.189853191375732,-0.5171475410461426
1789156645950924800,33.6009248046875,9.873687744140625,4.594472885131836,0.2849099934101105
1789156646010891800,33.66089184570313,12.121843338012695,2.212242364883423,-1.558625340461731
1789156646070858800,33.72085864257812,9.117119789123535,3.5673606395721436,-2.0159177780151367
1789156646130795300,33.78079516601562,8.226476669311523,2.8395233154296875,0.27054479718208313
1789156646190731800,33.84073168945312,8.453926086425781,3.313575267791748,-0.9576807022094727
1789156646250637800,33.90063793945313,7.15387487411499,3.4811692237854004,-1.1228805780410767
1789156646310544000,33.9605439453125,8.372523307800293,4.010287761688232,-0.181959331035614
1789156646370480400,34.02048046875,8.904036521911621,3.7636849880218506,-0.7326257228851318
1789156646430447400,34.080447265625,10.125079154968262,4.264073371887207,-0.6655880808830261
1789156646490353400,34.140353515625,12.416330337524414,4.125209331512451,1.5969325304031372
1789156646550320400,34.2003203125,11.32457447052002,2.274491548538208,-1.8052281141281128
1789156646610226400,34.26022631835937,9.081207275390625,3.3901896476745605,0.8667010068893433
1789156646670132500,34.32013256835938,7.436390399932861,3.7014358043670654,0.5578489899635315
1789156646730069000,34.38006909179688,7.90086555480957,3.359065055847168,-0.20111294090747833
1789156646790036000,34.44003588867187,7.486668586730957,3.643975019454956,-0.7565677165985107
1789156646850003200,34.50000317382813,8.303091049194336,4.2544965744018555,-0.5770025849342346
1789156646909939700,34.55993969726563,9.193734169006348,4.144362926483154,-1.8962076902389526
1789156646969845500,34.61984545898437,8.899248123168945,4.759673118591309,-1.5969325304031372
1789156647069790700,34.71979077148438,10.101137161254883,3.4811692237854004,-1.400607943534851
1789156647129727200,34.77972729492188,9.926360130310059,3.157952070236206,-1.015141487121582
1789156647189694200,34.83969409179687,8.288725852966309,3.117250680923462,-0.9169792532920837
1789156647249630700,34.89963061523437,7.726089000701904,3.2561142444610596,-0.5889736413955688
1789156647309567200,34.95956713867187,7.398083209991455,3.665522813796997,-0.5722141861915588
1789156647369503700,35.01950366210937,8.966285705566406,3.8379054069519043,-0.8834604024887085
1789156647429440300,35.07944018554687,10.524910926818848,3.576937437057495,0.16759411990642548
1789156647489376800,35.13937670898437,9.50498104095459,4.036623954772949,0.15083470940589905
1789156647549313300,35.19931323242187,10.168174743652344,3.5913026332855225,1.6424223184585571
1789156647609219300,35.25921923828125,10.682928085327148,2.8802247047424316,-1.1851298809051514
1789156647669186300,35.31918627929687,9.411606788635254,3.0334534645080566,0.40701428055763245
1789156647729092400,35.37909228515625,8.233659744262695,3.4141316413879395,0.10773907601833344
1789156647789059600,35.4390595703125,6.9240312576293945,3.4548330307006836,-0.24181437492370605
1789156647849026600,35.49902661132813,8.118738174438477,3.514688014984131,-0.38307225704193115
1789156647908963000,35.55896313476563,8.604761123657227,3.8498764038085938,-1.213860273361206
1789156647968907000,35.618906982421876,11.262324333190918,3.6942532062530518,-1.1851298809051514
1789156648028874200,35.678874267578124,8.865729331970215,4.048594951629639,-0.17956513166427612
1789156648088810800,35.738810791015624,12.09550666809082,2.559401512145996,-1.4484920501708984
1789156648148777700,35.79877783203125,9.01895809173584,3.9647979736328125,-1.2449848651885986
1789156648208744700,35.85874462890625,8.588001251220703,2.6815059185028076,-0.21308395266532898
1789156648268681200,35.91868115234375,8.257601737976074,3.0382418632507324,-0.20111294090747833
1789156648328617700,35.97861767578125,6.660669326782227,3.5410242080688477,-0.7829039692878723
1789156648388523800,36.038523681640626,9.265560150146484,3.399766445159912,-0.7038952708244324
1789156648448490800,36.09849072265625,9.351752281188965,3.6846764087677,-0.22505496442317963
1789156648508396800,36.158396728515626,10.266336441040039,4.000710964202881,-0.4620809257030487
1789156648568302800,36.218302734375,10.96544361114502,3.098097085952759,0.0454898327589035
1789156648628239400,36.2782392578125,11.39400577545166,2.078166961669922,-1.8483237028121948
1789156648688175900,36.33817578125,8.96149730682373,2.717418909072876,0.2513911724090576
1789156648788060000,36.438059814453126,7.362170219421387,3.1435868740081787,-0.5219359993934631
1789156648847996400,36.497996337890626,7.474697589874268,3.442862033843994,-0.4620809257030487
1789156648907933000,36.557932861328126,7.508216381072998,3.7014358043670654,-0.45250412821769714
1789156648967839000,36.6178388671875,9.818621635437012,3.406949043273926,-1.161187767982483
1789156649027775500,36.677775390625,10.199298858642578,4.129997730255127,-1.2234370708465576
1789156649087773200,36.737773193359374,10.90558910369873,3.8163576126098633,0.2825157940387726
1789156649147709700,36.797709716796874,12.057199478149414,2.298433542251587,-1.359906554222107
1789156649207676700,36.8576767578125,9.023746490478516,3.354276657104492,0.3208230137825012
1789156649267552000,36.917552001953126,7.927201747894287,2.513911724090576,-0.181959331035614
1789156649327488800,36.97748876953125,8.142680168151855,2.5067291259765625,-0.5961562395095825
1789156649387486200,37.037486328125,6.962338447570801,3.220201253890991,-0.5147533416748047
1789156649447392300,37.097392333984374,9.279925346374512,3.3518824577331543,0.05506663769483566
1789156649507328800,37.157328857421874,10.76193618774414,3.2968156337738037,-0.009576806798577309
1789156649567265300,37.217265380859374,10.702081680297852,3.378218650817871,-0.17717093229293823
1789156649627201800,37.277201904296874,12.887988090515137,2.7102363109588623,0.8547300100326538
1789156649687138300,37.33713818359375,9.172186851501465,2.604891538619995,-0.7015010714530945
1789156649747105300,37.397105224609376,8.35336971282959,3.117250680923462,0.031124621629714966
1789156649807011300,37.45701123046875,7.8098859786987305,2.896984100341797,-0.7709329724311829
1789156649866947800,37.51694775390625,6.543353080749512,3.4308910369873047,-0.4644751250743866
1789156649926884400,37.57688427734375,7.939172744750977,3.689464807510376,-0.5434837937355042
1789156649986790400,37.636790283203126,9.346963882446289,3.8977603912353516,-0.2537853717803955
1789156650046757400,37.69675732421875,12.48815631866455,3.337517261505127,-1.3431471586227417
1789156650106694000,37.75669384765625,9.801861763000488,4.170699596405029,-1.381454348564148
1789156650166600000,37.816599853515626,11.712434768676758,2.8347349166870117,-0.768538773059845
1789156650226536400,37.876536376953126,9.160215377807617,3.3854012489318848,-1.9369091987609863
1789156650286473000,37.936472900390626,8.085219383239746,2.427720546722412,-0.2801215946674347
1789156650346440000,37.99643994140625,6.921637058258057,2.5977089405059814,-0.5410895943641663
1789156650406437600,38.056437744140624,6.71334171295166,2.8371291160583496,-0.9840168952941895
1789156650466374100,38.1163740234375,8.638279914855957,3.2848446369171143,-0.7254431247711182
1789156650526280200,38.1762802734375,9.701305389404297,3.641580820083618,-0.1412578970193863
1789156650586216700,38.236216796875,10.649409294128418,4.1156325340271,0.31364041566848755
1789156650646122800,38.296122802734374,11.662156105041504,3.8762125968933105,0.7445967197418213
1789156650706089700,38.35608984375,10.589553833007812,1.944091796875,-0.12210428714752197
1789156650766056700,38.416056640625,9.153033256530762,2.7772738933563232,0.5530605912208557
1789156650865971200,38.51597119140625,7.773972988128662,3.021482467651367,-0.043095629662275314
1789156650925907700,38.57590771484375,7.043741226196289,3.450044631958008,-0.9217676520347595
1789156650985813800,38.635813720703126,9.083600997924805,3.737348794937134,-0.5315127968788147
1789156651045781000,38.695781005859374,10.314221382141113,3.7445313930511475,-1.460463047027588
1789156651105717500,38.755717529296874,11.099518775939941,4.079719543457031,-1.2330138683319092
1789156651165654000,38.815654052734374,9.107542991638184,4.235342979431152,0.5315127968788147
1789156651225590500,38.875590576171874,10.675745010375977,2.4899697303771973,-2.671929121017456
1789156651285527000,38.935527099609374,9.86889934539795,3.181894063949585,-0.6320692300796509
1789156651345524500,38.9955244140625,7.773972988128662,2.5091233253479004,-0.3519476354122162
1789156651405430500,39.055430419921876,8.286332130432129,2.4899697303771973,-0.706289529800415
1789156651465367000,39.115366943359376,7.285555839538574,2.942473888397217,-0.9624691009521484
1789156651525334000,39.175333984375,8.78193187713623,3.3039982318878174,-0.6105214357376099
1789156651645237800,39.29523779296875,10.187328338623047,3.3446998596191406,0.5291185975074768
1789156651705235200,39.355235107421876,13.318943977355957,1.889025092124939,-0.2513911724090576
1789156651765202200,39.4152021484375,11.080365180969238,2.049436569213867,-0.10534487664699554
1789156651825138700,39.475138671875,5.889736175537109,2.8562827110290527,1.0103530883789062
1789156651885106000,39.53510595703125,7.800309181213379,2.8634653091430664,-0.004788403399288654
1789156651984959200,39.634959228515626,6.794744491577148,3.7876269817352295,-0.6033388376235962
1789156652084935000,39.734934814453126,11.382035255432129,4.129997730255127,-0.6991068720817566
1789156652144902000,39.79490185546875,11.128249168395996,4.02465295791626,-1.4484920501708984
1789156652204869000,39.854869140625,10.259154319763184,3.794809579849243,0.3280056416988373
1789156652264805600,39.9148056640625,10.412383079528809,2.2577321529388428,-2.140416383743286
1789156652324711400,39.97471142578125,9.14585018157959,3.0382418632507324,0.2585737705230713
1789156652404667600,40.054667724609374,7.436390399932861,2.5665841102600098,-0.9361328482627869
1789156652464634600,40.114634521484376,7.4100542068481445,2.894589900970459,-0.363918662071228
1789156652524540700,40.174540771484374,8.695740699768066,3.177105665206909,-0.33758243918418884
1789156652624455200,40.274455078125,11.726799964904785,3.667917013168335,-0.040701430290937424
1789156652684422100,40.334422119140626,10.098742485046387,3.9264907836914062,1.4532804489135742
1789156652744389400,40.394389404296874,10.735600471496582,3.251325845718384,0.35913026332855225
1789156652804326000,40.454325927734374,9.478644371032715,3.1507694721221924,-0.16519992053508759
1789156652864292900,40.51429296875,7.417236804962158,2.9735984802246094,-0.05267243832349777
1789156652964177000,40.614177001953124,7.354987621307373,2.9879636764526367,-0.07900865375995636
1789156653024133400,40.67413330078125,7.592013359069824,3.5913026332855225,-0.9002198576927185
1789156653084070000,40.73406982421875,9.411606788635254,4.050989151000977,-0.45489832758903503
1789156653144006400,40.79400634765625,10.778696060180664,4.410119533538818,-0.05746084079146385
1789156653203973400,40.853973388671875,10.220847129821777,4.546588897705078,-0.6847416758537292
1789156653263910000,40.913909912109375,11.367670059204102,4.113238334655762,0.3208230137825012
1789156653323877000,40.97387719726562,10.06043529510498,3.138798475265503,-1.7836803197860718
1789156653423761200,41.07376123046875,7.826645374298096,2.7246015071868896,-0.4189853072166443
1789156653483636500,41.133636474609375,7.412448406219482,2.5737667083740234,-0.5530605912208557
1789156653543573000,41.193572998046875,7.608773231506348,2.8203697204589844,-0.5746083855628967
1789156653603509500,41.253509521484375,9.634267807006836,2.9065608978271484,-0.028730420395731926
1789156653663446000,41.313446044921875,10.235212326049805,3.19865345954895,0.4572925269603729
1789156653723413200,41.37341333007812,8.975862503051758,4.197035789489746,0.7230489253997803
1789156653783349800,41.43334985351562,10.855310440063477,3.7038300037384033,1.436521053314209
1789156653843255600,41.493255615234375,11.659762382507324,3.2417490482330322,-1.338358759880066
1789156653903161600,41.55316162109375,8.003816604614258,3.4596214294433594,-0.1412578970193863
1789156653963037200,41.613037109375,7.398083209991455,3.2130186557769775,-0.33997663855552673
1789156654022973700,41.6729736328125,7.496245384216309,3.6296098232269287,0.7637503147125244
1789156654082940700,41.732940673828125,6.993463039398193,3.6559460163116455,-0.5961562395095825
1789156654142877200,41.792877197265625,9.727641105651855,4.000710964202881,-0.8475474119186401
1789156654202875000,41.852875,10.60391902923584,4.632780075073242,-1.4652514457702637
1789156654262811400,41.912811279296875,11.587936401367188,4.034229755401611,0.5171475410461426
1789156654322717400,41.97271752929687,10.223240852355957,2.63362193107605,-1.7932571172714233
1789156654382654000,42.03265405273437,10.251971244812012,2.6575639247894287,0.363918662071228
1789156654442590500,42.09259057617187,8.02536392211914,2.7485435009002686,-0.016759412363171577
1789156654502557400,42.152557373046875,7.175422668457031,2.7269957065582275,-0.31842881441116333
1789156654562463500,42.21246337890625,7.1921820640563965,3.421314239501953,-0.7757213711738586
1789156654622338800,42.2723388671875,9.339780807495117,3.7158010005950928,-0.5722141861915588
1789156654682275300,42.332275390625,10.714052200317383,3.512293815612793,0.1388636976480484
1789156654742211800,42.3922119140625,9.763554573059082,3.8091750144958496,0.6129156351089478
1789156654802118000,42.452117919921875,11.470620155334473,3.466804027557373,0.20350714027881622
1789156654862054400,42.512054443359375,11.073183059692383,2.6815059185028076,-1.0558429956436157
1789156654921991000,42.571990966796875,7.496245384216309,2.846705913543701,-0.1149216815829277
1789156655021905700,42.67190576171875,6.801927089691162,3.375824451446533,-0.13407529890537262
1789156655081842200,42.73184228515625,8.051700592041016,3.9193081855773926,-0.3232172429561615
1789156655141778700,42.79177880859375,8.954314231872559,4.438849925994873,-0.08619125932455063
1789156655201715200,42.851715087890625,11.295844078063965,3.7181951999664307,-1.072602391242981
1789156655261651700,42.911651611328125,9.885659217834473,3.9863457679748535,0.08619125932455063
1789156655321618700,42.97161865234375,11.583148002624512,2.82515811920166,-0.5841852426528931
1789156655381555200,43.03155517578125,10.050858497619629,3.7445313930511475,-0.8978256583213806
1789156655441461200,43.091461181640625,7.637503623962402,2.6168625354766846,-0.038307227194309235
1789156655501428200,43.15142822265625,7.539340972900391,2.8131868839263916,-0.36152446269989014
1789156655561364700,43.21136474609375,6.3063273429870605,3.1100680828094482,-0.5339069962501526
1789156655621331700,43.271331787109375,9.334992408752441,3.2393548488616943,-0.31364041566848755
1789156655681207300,43.331207275390625,9.299078941345215,3.335123062133789,-0.6631938815116882
1789156655741143800,43.391143798828125,11.439496040344238,3.691859006881714,-0.0071826050989329815
1789156655801110800,43.45111083984375,10.101137161254883,3.512293815612793,0.9457096457481384
1789156655861047300,43.51104736328125,12.442666053771973,1.6280571222305298,-1.039083480834961
1789156655920983800,43.57098388671875,8.283937454223633,2.7940332889556885,0.040701430290937424
1789156655980920600,43.63092065429687,7.666234016418457,2.6431987285614014,-0.15562310814857483
1789156656040887600,43.690887451171875,7.2137298583984375,3.028665065765381,-0.29209262132644653
1789156656100824000,43.750823974609375,7.208941459655762,3.6104562282562256,0.026336219161748886
1789156656160760600,43.810760498046875,9.255983352661133,3.598485231399536,-0.047884032130241394
1789156656220727600,43.8707275390625,11.523292541503906,3.711012601852417,-1.1755530834197998
1789156656280664000,43.9306640625,10.153809547424316,4.2090067863464355,-0.9002198576927185
1789156656340631000,43.990631103515625,12.931083679199219,2.741360902786255,-0.4692635238170624
1789156656400537000,44.050537109375,10.613495826721191,2.557007312774658,-2.499546527862549
1789156656460504300,44.11050439453125,8.133103370666504,2.3798365592956543,0.5554547905921936
1789156656520410000,44.17041015625,6.423643112182617,2.652775526046753,-0.45010992884635925
1789156656580346600,44.2303466796875,6.97430944442749,2.762908697128296,-0.6057330369949341
1789156656640283100,44.290283203125,8.190564155578613,3.28963303565979,-0.47644615173339844
1789156656700219600,44.3502197265625,9.787496566772461,3.670311212539673,0.19871874153614044
1789156656760187000,44.410186767578125,11.243170738220215,3.3710360527038574,0.2968810200691223
1789156656820153900,44.47015380859375,10.283096313476562,3.5960910320281982,2.3032219409942627
1789156656880060000,44.530059814453125,12.90714168548584,1.4437036514282227,-0.5291185975074768
1789156656940057300,44.590057373046875,9.581595420837402,2.647987127304077,-0.1867477297782898
1789156656999933000,44.649932861328125,6.538564682006836,2.7437551021575928,0.5650315880775452
1789156657059869400,44.709869384765625,8.255207061767578,2.6671407222747803,-0.23942017555236816
1789156657159784000,44.809783935546875,6.8593878746032715,3.3854012489318848,-0.42377370595932007
1789156657219690000,44.86968994140625,8.848969459533691,4.036623954772949,-0.9744400978088379
1789156657279687400,44.9296875,11.118672370910645,3.869029998779297,-1.647210717201233
1789156657339624200,44.98962426757812,10.773907661437988,3.732560396194458,-1.5514427423477173
1789156657399560700,45.04956079101562,12.246341705322266,1.9105730056762695,-2.123656988143921
1789156657459466500,45.109466552734375,11.12346076965332,2.7940332889556885,-2.1978771686553955
1789156657519433700,45.16943383789062,9.543288230895996,1.05105459690094,-2.0470423698425293
1789156657579370200,45.22937036132812,9.198522567749023,1.3455413579940796,-1.0271124839782715
1789156657639337200,45.289337158203125,7.089231014251709,1.6112977266311646,-1.357512354850769
1789156657699304200,45.34930419921875,8.492233276367188,2.118868589401245,-0.37828385829925537
1789156657759240700,45.40924072265625,9.050082206726074,2.652775526046753,0.21787235140800476
1789156657819207700,45.469207763671875,10.536881446838379,2.188300371170044,-0.13168109953403473
1789156657879113700,45.52911376953125,10.472238540649414,2.5546131134033203,1.170764684677124
1789156657939050200,45.58905029296875,12.682085990905762,1.3623007535934448,-0.023942016065120697
1789156657998956300,45.648956298828125,10.845733642578125,1.601720929145813,0.28969839215278625
1789156658058926300,45.70892626953125,7.249642848968506,2.1930887699127197,0.2825157940387726
1789156658118862800,45.76886279296875,8.372523307800293,2.6623523235321045,0.8403648138046265
1789156658178769000,45.82876879882812,7.395689010620117,2.786850690841675,0.05746084079146385
1789156658238705400,45.88870532226562,8.339004516601562,3.157952070236206,0.6799532771110535
1789156658318631000,45.968630859375,9.715670585632324,3.4524388313293457,-0.7086837291717529
1789156658378506500,46.02850659179688,11.501745223999023,3.6583402156829834,-0.6200982332229614
1789156658438473500,46.08847338867187,12.29662036895752,3.5003228187561035,-0.304063618183136
1789156658498440400,46.1484404296875,11.183316230773926,2.382230758666992,-2.1595699787139893
1789156658558346500,46.20834643554687,10.654197692871094,2.782062292098999,-0.6488286852836609
1789156658618313700,46.26831372070313,7.781155586242676,2.0638017654418945,-1.1755530834197998
1789156658678280700,46.32828076171875,6.811503887176514,2.4372973442077637,-0.4620809257030487
1789156658738217200,46.38821728515625,6.854599475860596,3.066972494125366,-1.3527239561080933
1789156658798123300,46.44812329101563,8.556877136230469,3.136404275894165,-0.3711012601852417
1789156658858029000,46.50802905273437,9.576807022094727,4.019864559173584,0.33279404044151306
1789156658917935000,46.56793505859375,10.436325073242188,3.359065055847168,0.608127236366272
1789156658977871600,46.62787158203125,12.962207794189453,2.3535003662109375,-0.3447650372982025
1789156659037808000,46.68780810546875,12.145785331726074,1.5155296325683594,-1.0342950820922852
1789156659097714200,46.74771411132812,7.999027729034424,2.542642116546631,0.6057330369949341
1789156659157620200,46.8076201171875,6.347028732299805,2.8874073028564453,0.5315127968788147
1789156659217556700,46.867556640625,6.84981107711792,2.8347349166870117,0.08858546614646912
1789156659277462800,46.927462890625,7.800309181213379,3.3279404640197754,-0.5841852426528931
1789156659337399300,46.9873994140625,9.749189376831055,3.2824504375457764,-0.5674257874488831
1789156659397305300,47.04730541992188,11.583148002624512,3.603273630142212,-1.6065093278884888
1789156659457211400,47.10721142578125,9.66539192199707,4.0294413566589355,-1.4053963422775269
1789156659517148000,47.16714794921875,12.24394702911377,2.8993782997131348,-1.7070658206939697
1789156659577084400,47.22708447265625,9.248801231384277,3.3494882583618164,-1.3766659498214722
1789156659676968400,47.32696850585938,8.109161376953125,2.3989901542663574,0.08619125932455063
1789156659736874500,47.38687451171875,7.819462776184082,2.1715409755706787,-0.23942017555236816
1789156659796811000,47.44681103515625,6.94079065322876,3.0358476638793945,-0.6105214357376099
1789156659856716800,47.506716796875,9.612719535827637,3.3710360527038574,-0.5913678407669067
1789156659916684000,47.56668408203125,9.832986831665039,3.2345664501190186,1.0007762908935547
1789156659976590000,47.62659008789063,11.439496040344238,3.268085241317749,1.2306196689605713
1789156660036526600,47.68652661132813,11.475408554077148,2.3367409706115723,-0.36152446269989014
1789156660096463000,47.74646313476563,9.560047149658203,2.454056739807129,-0.06464344263076782
1789156660156399600,47.80639965820313,8.860940933227539,2.7006595134735107,-0.31842881441116333
1789156660216305700,47.8663056640625,7.469909191131592,3.1100680828094482,-0.14604631066322327
1789156660276303000,47.92630322265625,6.54574728012085,3.7205893993377686,-0.019153613597154617
1789156660336270000,47.98627001953125,8.24084186553955,4.010287761688232,-0.6512228846549988
1789156660396237300,48.0462373046875,9.39245319366455,4.441244125366211,-1.3670891523361206
1789156660456173800,48.106173828125,9.452308654785156,4.668693542480469,-2.0638017654418945
1789156660516110300,48.1661103515625,11.808202743530273,3.4117374420166016,-0.272938996553421
1789156660576016100,48.22601611328125,12.749124526977539,2.0231003761291504,-1.1276689767837524
1789156660675839200,48.32583911132812,8.1139497756958,1.9153614044189453,-0.038307227194309235
1789156660735745300,48.38574536132813,7.625532627105713,2.1715409755706787,-0.05985504388809204
1789156660795681800,48.44568188476563,5.894524574279785,2.3319525718688965,-0.06224924325942993
1789156660855618300,48.50561840820313,7.769184589385986,3.0358476638793945,-0.3926490843296051
1789156660915585300,48.56558520507812,10.273519515991211,3.315969467163086,-0.07422025501728058
1789156660975521800,48.62552172851562,11.54005241394043,3.3901896476745605,-0.5267243981361389
1789156661035427800,48.685427734375,10.742782592773438,2.0446481704711914,1.7357962131500244
1789156661095334000,48.745333984375,8.47786808013916,1.5514427423477173,-1.656787633895874
1789156661155300900,48.80530078125,12.607866287231445,1.6496049165725708,-0.569819986820221
1789156661215267800,48.86526782226562,9.006986618041992,2.4181437492370605,-0.49799394607543945
1789156661275235000,48.92523510742188,8.135497093200684,2.8826189041137695,0.016759412363171577
1789156661335202000,48.9852021484375,9.172186851501465,3.043030261993408,-0.7661445140838623
1789156661395138600,49.045138671875,9.983820915222168,3.1459810733795166,-0.27054479718208313
1789156661455075000,49.10507495117187,11.647790908813477,3.1459810733795166,-0.7924807667732239
1789156661555020000,49.20502001953125,10.57040023803711,3.550601005554199,0.38067805767059326
1789156661614987300,49.2649873046875,10.867281913757324,2.027888774871826,-1.987187385559082
1789156661674893300,49.32489331054688,8.087613105773926,2.75812029838562,0.9864110946655273
1789156661734860300,49.3848603515625,7.331045627593994,2.8203697204589844,-0.043095629662275314
1789156661794766300,49.44476635742188,8.14028549194336,2.296039342880249,-0.8188169598579407
1789156661854702800,49.50470288085938,7.8098859786987305,2.8562827110290527,-0.6009446382522583
1789156661914609000,49.56460888671875,9.397241592407227,2.937685489654541,-0.6057330369949341
1789156661974575900,49.62457592773438,10.273519515991211,2.52109432220459,0.22026655077934265
1789156662034542800,49.68454296875,9.026140213012695,2.7437551021575928,1.436521053314209
1789156662094479400,49.74447924804687,11.176133155822754,1.6759412288665771,-0.17477671802043915
1789156662154385400,49.80438549804688,10.02452278137207,3.0190882682800293,0.3256114423274994
1789156662214322000,49.86432202148438,8.652645111083984,3.0358476638793945,0.2585737705230713
1789156662274258400,49.92425854492188,8.281543731689453,3.3231520652770996,0.08379705995321274
1789156662334195000,49.98419482421875,7.127538681030273,3.529053211212158,-0.15562310814857483
1789156662394131500,50.04413134765625,8.650250434875488,3.7158010005950928,-0.6153098344802856
1789156662454068000,50.10406787109375,10.982203483581543,3.5625722408294678,-1.3694833517074585
1789156662514004500,50.16400439453125,10.915165901184082,4.019864559173584,-1.802833914756775
1789156662573910500,50.22391064453125,10.228029251098633,3.292027235031128,0.9576807022094727
1789156662633847000,50.28384692382812,10.457873344421387,2.7054479122161865,-2.006340980529785
1789156662693783600,50.34378344726562,10.524910926818848,1.8579005002975464,-0.3734954595565796
1789156662753720000,50.40371997070312,6.873753070831299,2.293645143508911,-0.021547814831137657
1789156662813626000,50.46362622070313,6.84981107711792,2.434903144836426,-0.40462008118629456
1789156662873593000,50.52359301757812,7.884106159210205,3.0190882682800293,-0.22744916379451752
1789156662933560000,50.58356005859375,8.87291145324707,3.0358476638793945,-0.7781155705451965
1789156662993496800,50.64349682617188,12.246341705322266,2.9305028915405273,0.181959331035614
1789156663053433300,50.70343334960938,10.237606048583984,3.0789434909820557,0.9097966551780701
1789156663113333200,50.76333325195313,11.628637313842773,1.5873557329177856,-0.8834604024887085
1789156663173300500,50.823300537109375,9.119514465332031,2.58813214302063,-0.33279404044151306
1789156663233267500,50.88326733398438,7.790732383728027,2.695871114730835,-0.11252748221158981
1789156663293234400,50.943234375,6.701370716094971,3.0550012588500977,-0.0454898327589035
1789156663353171000,51.0031708984375,6.701370716094971,3.6080620288848877,-0.13168109953403473
1789156663413138000,51.06313793945313,9.155426979064941,3.5410242080688477,-0.2777273952960968
1789156663513052700,51.163052734375,10.884040832519531,3.751713991165161,-1.5682021379470825
1789156663572958500,51.22295849609375,12.339715957641602,3.2393548488616943,0.849941611289978
1789156663672842500,51.32284252929688,10.18493366241455,2.894589900970459,-0.3447650372982025
1789156663732779000,51.38277905273438,7.072471618652344,1.9776105880737305,0.42616790533065796
1789156663792715500,51.44271557617188,8.518569946289062,2.1978771686553955,-0.4141969084739685
1789156663852652300,51.50265234375,7.474697589874268,2.7772738933563232,-0.5123591423034668
1789156663952597200,51.60259716796875,9.943120002746582,3.0837318897247314,0.272938996553421
1789156664012533800,51.66253369140625,11.322179794311523,2.82515811920166,-0.3280056416988373
1789156664072470300,51.72247021484375,9.974244117736816,2.784456491470337,1.1252747774124146
1789156664132529000,51.78252880859375,11.305420875549316,1.922544002532959,0.47644615173339844
1789156664192435000,51.84243505859375,8.38688850402832,2.741360902786255,-0.3758896589279175
1789156664252402000,51.90240185546875,7.934384346008301,2.5713725090026855,-0.3423708379268646
1789156664312338400,51.96233837890625,6.84981107711792,3.2130186557769775,-0.6248866319656372
1789156664372336000,52.022336181640625,7.572859764099121,3.4979286193847656,-0.43095630407333374
1789156664432242000,52.08224194335938,11.293449401855469,3.335123062133789,-0.751779317855835
1789156664492239600,52.14223950195313,11.683704376220703,3.77565598487854,-0.9097966551780701
1789156664552176000,52.20217602539063,9.193734169006348,3.8379054069519043,-0.15322890877723694
1789156664612082200,52.262082275390625,10.99896240234375,2.537853717803955,-0.8978256583213806
1789156664672018700,52.322018798828125,10.271124839782715,3.098097085952759,-0.8020575642585754
1789156664731955200,52.381955078125,7.577648162841797,2.382230758666992,0.18914192914962769
1789156664791861200,52.441861328125,8.880094528198242,2.4181437492370605,-0.9792284965515137
1789156664851828200,52.501828125,7.06528902053833,2.6216509342193604,-0.7086837291717529
1789156664911764700,52.5617646484375,8.927978515625,2.892195701599121,-0.5003881454467773
1789156664971670800,52.6216708984375,10.27591323852539,3.270479440689087,0.4572925269603729
1789156665031607300,52.68160717773438,10.431536674499512,3.641580820083618,0.17238251864910126
1789156665091482600,52.74148266601563,10.366893768310547,3.2752678394317627,1.4748282432556152
1789156665151419100,52.80141918945313,10.970232009887695,2.1332337856292725,-0.5267243981361389
1789156665211386400,52.861386474609375,8.736441612243652,2.7724854946136475,0.811634361743927
1789156665271353300,52.92135327148438,6.878541469573975,3.1938650608062744,-0.1604115068912506
1789156665331320300,52.9813203125,7.714118003845215,3.1435868740081787,-0.3687070608139038
1789156665391256800,53.0412568359375,8.006210327148438,3.840299606323242,-0.3902548849582672
1789156665451193300,53.101193359375,10.36449909210205,4.017470359802246,-0.12210428714752197
1789156665511191000,53.16119091796875,12.464214324951172,3.928884983062744,-0.3016694188117981
1789156665571158000,53.22115795898438,9.552865028381348,4.3861775398254395,1.235408067703247
1789156665631094500,53.28109448242188,11.02051067352295,2.3750481605529785,-1.1492167711257935
1789156665691031000,53.34103100585938,9.253589630126953,3.2632968425750732,-0.6344634294509888
1789156665750998000,53.400998046875,8.010998725891113,2.188300371170044,0.16519992053508759
1789156665810934500,53.4609345703125,7.642292022705078,2.518700122833252,-0.6344634294509888
1789156665870901800,53.52090185546875,7.003039836883545,3.00711727142334,-0.569819986820221
1789156665930868700,53.58086865234375,9.399636268615723,3.1675288677215576,0.2849099934101105
1789156665990805200,53.64080517578125,9.914389610290527,3.469198226928711,1.161187767982483
1789156666050711300,53.70071118164063,10.522516250610352,3.5745432376861572,1.1420341730117798
1789156666110708700,53.76070874023438,10.584765434265137,2.9759926795959473,0.26336219906806946
1789156666170676000,53.820676025390625,10.60391902923584,2.367865562438965,-1.05105459690094
1789156666230612500,53.880612548828125,8.054094314575195,2.6408045291900635,0.3519476354122162
1789156666290610000,53.94060986328125,8.2312650680542,2.717418909072876,-0.3280056416988373
1789156666350546400,54.00054638671875,7.129932880401611,3.1890766620635986,-0.016759412363171577
1789156666410483000,54.06048291015625,7.8960771560668945,3.426102638244629,-0.16759411990642548
1789156666470419500,54.12041943359375,9.701305389404297,3.84269380569458,-0.4644751250743866
1789156666530386400,54.18038647460938,11.403582572937012,3.3255462646484375,-1.048660397529602
1789156666590292500,54.24029248046875,9.99339771270752,4.367023944854736,1.50355863571167
1789156666650290200,54.300290283203125,11.91354751586914,2.1068975925445557,-1.5275006294250488
1789156666710196200,54.3601962890625,10.093954086303711,3.5936968326568604,0.3711012601852417
1789156666770193700,54.42019360351563,7.352593421936035,2.5306711196899414,0.0933738648891449
1789156666830191000,54.48019116210938,7.728483200073242,2.5330653190612793,-0.395043283700943
1789156666890128000,54.5401279296875,7.041347026824951,2.9879636764526367,-0.7781155705451965
1789156666950064400,54.600064453125,9.459490776062012,2.9712042808532715,-0.6488286852836609
1789156667010001000,54.6600009765625,9.919178009033203,3.1507694721221924,0.023942016065120697
1789156667069968000,54.7199677734375,9.873687744140625,3.8067808151245117,0.44771572947502136
1789156667129965300,54.77996533203125,10.407594680786133,3.050212860107422,1.9632453918457031
1789156667189901800,54.83990185546875,12.504915237426758,1.1827356815338135,-1.2042834758758545
1789156667249869000,54.899869140625,8.786720275878906,2.5019407272338867,0.5817909836769104
1789156667309866500,54.95986645507813,7.9846625328063965,2.851494312286377,0.4596867263317108
1789156667369803000,55.01980297851563,7.462726593017578,3.043030261993408,0
1789156667429770000,55.07977001953125,8.118738174438477,3.335123062133789,-0.038307227194309235
1789156667489676000,55.13967602539063,10.596736907958984,3.670311212539673,-0.17956513166427612
1789156667549612500,55.19961254882813,10.781089782714844,3.931279182434082,-1.0678139925003052
1789156667609579800,55.259579833984375,10.20887565612793,3.8379054069519043,1.7094600200653076
1789156667669516300,55.319516357421875,11.585541725158691,1.625662922859192,-2.233790159225464
1789156667729483300,55.37948315429688,9.830592155456543,3.07415509223938,0.7757213711738586
1789156667789450200,55.4394501953125,6.993463039398193,2.078166961669922,-0.035913024097681046
1789156667849417200,55.49941723632813,8.561665534973145,1.9752163887023926,-0.18914192914962769
1789156667909384400,55.559384521484375,6.861782073974609,2.7078421115875244,-0.768538773059845
1789156667969290200,55.61929028320313,8.382100105285645,2.647987127304077,-0.2801215946674347
1789156668029226800,55.67922680664063,8.473079681396484,2.561795711517334,0.004788403399288654
1789156668089163500,55.73916357421875,12.030863761901855,2.9065608978271484,0.44771572947502136
1789156668149143600,55.7991435546875,12.866439819335938,2.806004285812378,1.647210717201233
1789156668209141200,55.859141357421876,11.444284439086914,1.5131354331970215,-1.4173674583435059
1789156668269108200,55.91910815429687,9.167398452758789,2.0374655723571777,-0.507570743560791
1789156668329075200,55.9790751953125,6.983886241912842,2.7748796939849854,-0.028730420395731926
1789156668389042200,56.03904223632812,6.7923502922058105,3.0382418632507324,0.4213795065879822
1789156668449009400,56.099009521484376,7.955932140350342,3.2609026432037354,0.05027823522686958
1789156668508946000,56.15894580078125,9.674968719482422,3.272873640060425,-0.6703764796257019
1789156668568913000,56.21891284179687,11.33654499053955,3.332728862762451,-0.7972691655158997
1789156668628880000,56.2788798828125,8.777143478393555,3.9456443786621094,0.002394201699644327
1789156668688846800,56.33884692382812,12.021286964416504,2.959233283996582,0.0071826050989329815
1789156668748783400,56.39878344726562,10.376470565795898,3.1890766620635986,-1.7836803197860718
1789156668808750600,56.45875048828125,9.50737476348877,2.0805611610412598,0.35434186458587646
1789156668868687000,56.51868701171875,7.793126583099365,2.7533318996429443,0.0933738648891449
1789156668928623600,56.57862353515625,6.50025749206543,2.9017724990844727,0.24181437492370605
1789156668988560100,56.63856005859375,8.518569946289062,2.8993782997131348,0.17238251864910126
1789156669048496600,56.69849658203125,9.239224433898926,2.892195701599121,-0.14604631066322327
1789156669148441600,56.79844165039062,9.962273597717285,3.6607344150543213,1.8387469053268433
1789156669208408800,56.858408935546876,12.229581832885742,2.049436569213867,0.3878606855869293
1789156669268345300,56.918345458984376,10.319009780883789,2.5450363159179688,-0.4692635238170624
1789156669328373200,56.97837329101562,8.863334655761719,2.5929205417633057,0.629675030708313
1789156669388309800,57.03830981445312,7.903259754180908,2.853888511657715,1.2952631711959839
1789156669448277000,57.098277099609376,6.801927089691162,3.5242648124694824,0.7182605266571045
1789156669508244000,57.15824389648437,8.525752067565918,3.643975019454956,0.19393034279346466
1789156669568180500,57.21818041992187,10.04846477508545,4.0749311447143555,-1.290474772453308
1789156669628178000,57.27817797851562,12.622231483459473,4.218583583831787,0.33039984107017517
1789156669688114400,57.33811450195312,9.526528358459473,4.230554580688477,1.644816517829895
1789156669748112100,57.39811206054687,10.8505220413208,2.1739351749420166,-0.7158663272857666
1789156669808048600,57.45804858398437,8.11634349822998,3.246537446975708,0.019153613597154617
1789156669868015600,57.518015625,6.993463039398193,2.741360902786255,1.1635819673538208
1789156669927982600,57.57798266601562,8.674192428588867,2.3032219409942627,-0.5602431893348694
1789156669987949800,57.63794970703125,7.7883381843566895,2.9065608978271484,0.5434837937355042
1789156670047855900,57.69785595703125,8.070854187011719,3.6104562282562256,0.5434837937355042
1789156670107792400,57.75779248046875,9.643844604492188,3.9384617805480957,0.4644751250743866
1789156670167729000,57.81772900390625,10.424354553222656,4.067748546600342,0.586579442024231
1789156670227665400,57.87766552734375,12.160150527954102,4.0078935623168945,1.5538369417190552
1789156670287632400,57.93763232421875,10.800244331359863,2.31758713722229,0.026336219161748886
1789156670347538400,57.99753833007812,9.033323287963867,3.0382418632507324,1.5634137392044067
1789156670407535900,58.05753588867187,6.234501361846924,2.9041666984558105,0.5674257874488831
1789156670467472400,58.11747241210937,7.690176010131836,2.7916390895843506,-0.023942016065120697
1789156670527439600,58.177439697265626,7.1921820640563965,3.952826976776123,0.05267243832349777
1789156670587376000,58.237376220703126,9.44991397857666,3.6822822093963623,0.8427590131759644
1789156670647373600,58.29737353515625,11.985373497009277,3.2609026432037354,0.11252748221158981
1789156670707310000,58.35731005859375,8.846575736999512,3.869029998779297,0.3280056416988373
1789156670767246600,58.41724658203125,12.947842597961426,2.4588451385498047,-0.43335050344467163
1789156670827213600,58.47721362304687,10.572794914245605,2.9903578758239746,-1.86508309841156
1789156670887119600,58.53711962890625,7.515398979187012,2.801215887069702,0.6584054827690125
1789156670947025700,58.59702563476562,7.465120792388916,3.2417490482330322,0.08379705995321274
1789156671026981600,58.67698168945312,7.860164165496826,3.24414324760437,-0.8595184087753296
1789156671086918100,58.73691821289062,8.185775756835938,3.754108190536499,0.31364041566848755
1789156671146824200,58.79682421875,9.485827445983887,3.9839515686035156,1.1300631761550903
1789156671206730200,58.85673022460937,11.362881660461426,3.292027235031128,0.24899697303771973
1789156671266697200,58.916697265625,12.284648895263672,3.2178070545196533,0.9002198576927185
1789156671326664400,58.97666455078125,9.93354320526123,2.3918075561523438,0.10295066982507706
1789156671386601000,59.03660107421875,8.054094314575195,2.741360902786255,1.1755530834197998
1789156671446537500,59.09653735351562,7.869740962982178,2.7078421115875244,0.1149216815829277
1789156671506474000,59.15647387695312,6.912060260772705,2.964021682739258,0
1789156671566441000,59.21644091796875,8.391676902770996,3.287238836288452,0.12928688526153564
1789156671626377500,59.27637744140625,10.055646896362305,4.015076160430908,0.07661445438861847
1789156671686344400,59.33634448242187,11.274295806884766,3.3710360527038574,-0.4381389021873474
1789156671746281000,59.39628100585937,8.949525833129883,3.8067808151245117,0.014365210197865963
1789156671806217500,59.45621752929687,11.171344757080078,2.2625205516815186,0.45250412821769714
1789156671866123500,59.51612353515625,9.797073364257812,2.9927520751953125,-1.6208745241165161
1789156671926090500,59.57609057617187,8.552088737487793,2.2816741466522217,0.15801730751991272
1789156671985996500,59.63599658203125,8.212111473083496,2.542642116546631,-0.12928688526153564
1789156672045902600,59.69590258789062,7.304709434509277,3.0166940689086914,-0.49320554733276367
1789156672105839000,59.75583911132812,8.468291282653809,3.3925838470458984,0.1412578970193863
1789156672165775600,59.81577563476562,8.736441612243652,3.5625722408294678,-1.3000515699386597
1789156672225803800,59.8758037109375,10.94150161743164,3.8283286094665527,0.22266076505184174
1789156672285740300,59.935740234375,12.921506881713867,3.220201253890991,1.1013327836990356
1789156672345646300,59.99564624023437,9.694122314453125,2.5761611461639404,0.26815059781074524
1789156672405613300,60.05561328125,8.801085472106934,2.628833532333374,0.4189853072166443
1789156672465580300,60.11558032226562,9.095572471618652,2.6575639247894287,-1.173158884048462
1789156672525486300,60.175486328125,7.285555839538574,2.8155810832977295,-0.21787235140800476
1789156672585422800,60.2354228515625,7.668628215789795,3.354276657104492,0.047884032130241394
1789156672645329000,60.29532885742187,9.639056205749512,3.359065055847168,0.6584054827690125
1789156672705265400,60.35526538085937,10.366893768310547,3.35667085647583,0.26575639843940735
1789156672765141000,60.41514111328125,8.71728801727295,3.754108190536499,-0.05985504388809204
1789156672825047000,60.475047119140626,12.131420135498047,3.0310592651367188,-0.31842881441116333
1789156672885014000,60.53501391601562,11.887211799621582,2.315192937850952,-2.671929121017456
1789156672944920000,60.594920166015626,9.536105155944824,2.5091233253479004,0
1789156673004856600,60.654856689453126,7.060500621795654,2.7437551021575928,-1.338358759880066
1789156673064793000,60.71479296875,7.15387487411499,2.9664158821105957,0.11252748221158981
1789156673124729600,60.7747294921875,6.8043212890625,3.3303346633911133,0.021547814831137657
1789156673184666000,60.834666015625,8.865729331970215,2.765302896499634,1.2521674633026123
1789156673244586800,60.89458666992188,11.456254959106445,3.0406360626220703,-0.8906430602073669
1789156673304492800,60.954492919921876,11.305420875549316,1.968033790588379,-0.22744916379451752
1789156673364429300,61.01442919921875,12.174515724182129,1.3455413579940796,1.0414776802062988
1789156673424365800,61.07436572265625,9.01895809173584,1.7693150043487549,-1.4317326545715332
1789156673484332800,61.13433276367188,8.825027465820312,2.142810583114624,0.05027823522686958
1789156673544269300,61.19426928710938,7.613561630249023,2.7437551021575928,0.038307227194309235
1789156673604205800,61.25420581054688,6.763619899749756,3.294421434402466,-0.7230489253997803
1789156673664142300,61.31414233398438,8.846575736999512,3.2632968425750732,-0.6057330369949341
1789156673724078800,61.37407885742188,9.342175483703613,3.6152446269989014,-0.608127236366272
1789156673784046000,61.434046142578126,10.496180534362793,4.010287761688232,0.7206547260284424
1789156673843982600,61.493982666015626,9.586383819580078,2.978386878967285,-1.436521053314209
1789156673903949600,61.55394946289063,12.425907135009766,2.6815059185028076,-0.7781155705451965
1789156673963886000,61.61388598632813,7.802703380584717,2.8802247047424316,-0.9600749015808105
1789156674023761700,61.67376171875,9.05247688293457,2.784456491470337,-0.06464344263076782
1789156674083698200,61.7336982421875,7.15387487411499,2.806004285812378,-0.5722141861915588
1789156674143634700,61.793634765625,8.310274124145508,3.141192674636841,-0.14604631066322327
1789156674203571200,61.8535712890625,9.557653427124023,3.1651346683502197,0.019153613597154617
1789156674263477200,61.913477294921876,11.283872604370117,3.3303346633911133,-0.5506663918495178
1789156674323444200,61.9734443359375,11.152191162109375,2.7485435009002686,1.580173134803772
1789156674383350300,62.033350341796876,12.24155330657959,2.0614075660705566,0.5746083855628967
1789156674443256000,62.09325610351563,8.109161376953125,2.9041666984558105,0.6703764796257019
1789156674503223300,62.153223388671876,7.608773231506348,3.1531636714935303,1.3287819623947144
1789156674603137800,62.2531376953125,8.465897560119629,2.499546527862549,-1.1540051698684692
1789156674663074300,62.31307421875,8.149862289428711,3.0095114707946777,-2.4636335372924805
1789156674722950000,62.372949951171876,9.394847869873047,3.141192674636841,-1.4628572463989258
1789156674782916900,62.43291674804688,10.805032730102539,3.337517261505127,-2.5306711196899414
1789156674842853400,62.49285327148438,10.333374977111816,2.9903578758239746,0.033518824726343155
1789156674902790000,62.55278979492188,10.062829971313477,1.5418659448623657,-1.7405846118927002
1789156674962696000,62.612696044921876,9.93593692779541,2.3247697353363037,-0.7613561153411865
1789156675022602000,62.67260205078125,8.588001251220703,2.2625205516815186,-0.12689268589019775
1789156675082599400,62.73259936523438,8.224082946777344,2.5067291259765625,-0.5674257874488831
1789156675142505500,62.79250537109375,7.232883453369141,3.220201253890991,-0.05985504388809204
1789156675202442000,62.85244189453125,8.868123054504395,3.3255462646484375,-0.45010992884635925
1789156675262348000,62.91234814453125,10.369287490844727,3.136404275894165,0.15801730751991272
1789156675322284500,62.97228442382813,9.749189376831055,3.648763418197632,0.2753331959247589
1789156675382190600,63.032190673828126,10.57040023803711,2.760514497756958,-0.19871874153614044
1789156675442157600,63.09215747070313,10.611102104187012,2.7892448902130127,-0.5099649429321289
1789156675502094000,63.15209399414063,8.070854187011719,2.829946517944336,0.12449848651885986
1789156675562030600,63.21203051757813,7.948749542236328,3.3470940589904785,0.08619125932455063
1789156675621997600,63.27199755859375,6.8593878746032715,3.7014358043670654,-0.9433154463768005
1789156675681934000,63.33193408203125,8.367734909057617,4.050989151000977,-0.4668693244457245
1789156675741870600,63.39187060546875,9.062053680419922,4.072536945343018,-1.4245500564575195
1789156675801837800,63.451837890625,10.924742698669434,3.9624037742614746,-1.5131354331970215
1789156675861774300,63.5117744140625,9.030928611755371,4.017470359802246,-0.07422025501728058
1789156675921710800,63.5717109375,11.458649635314941,2.456450939178467,-1.8387469053268433
1789156675981708300,63.63170825195313,9.229647636413574,3.5889084339141846,-1.4987702369689941
1789156676041644800,63.69164477539063,8.786720275878906,2.3702597618103027,-1.338358759880066
1789156676101611800,63.75161181640625,8.556877136230469,2.918531894683838,-0.5602431893348694
1789156676161548500,63.811548583984376,6.871358871459961,3.138798475265503,-1.0678139925003052
1789156676221515500,63.871515625,9.057265281677246,3.581725835800171,-0.33997663855552673
1789156676281452000,63.9314521484375,9.854534149169922,3.359065055847168,-0.20350714027881622
1789156676341327400,63.99132739257813,10.524910926818848,4.0294413566589355,-0.5530605912208557
1789156676401294600,64.05129467773438,10.285490036010742,2.868253707885742,0.7350199222564697
1789156676461200600,64.11120068359375,11.382035255432129,2.2649147510528564,-0.8762778043746948
1789156676521137200,64.17113720703125,8.628703117370605,3.552995204925537,2.145204782485962
1789156676581012500,64.23101245117188,7.544129371643066,3.24414324760437,0.36152446269989014
1789156676640949000,64.29094897460938,7.627926826477051,3.1244332790374756,-1.0342950820922852
1789156676700855000,64.35085498046875,7.453149795532227,3.555389642715454,-1.3215993642807007
1789156676760791600,64.41079150390625,8.87291145324707,3.7038300037384033,-1.2258312702178955
1789156676820697600,64.47069750976563,10.366893768310547,3.9600095748901367,-2.1811177730560303
1789156676880634000,64.53063403320313,9.028534889221191,4.924872875213623,-1.9752163887023926
1789156676940540200,64.5905400390625,12.107478141784668,3.071760892868042,-0.7709329724311829
1789156677000476700,64.6504765625,10.378864288330078,3.270479440689087,-2.5091233253479004
1789156677060413200,64.7104130859375,8.391676902770996,2.784456491470337,-0.47165772318840027
1789156677120410600,64.77041064453125,7.8314337730407715,2.96162748336792,-0.44771572947502136
1789156677180347100,64.83034716796875,6.8809356689453125,3.3231520652770996,-1.1851298809051514
1789156677240253200,64.89025317382813,9.08838939666748,3.799597978591919,-0.6105214357376099
1789156677300159200,64.9501591796875,9.32302188873291,3.7708675861358643,0.08619125932455063
1789156677360095700,65.010095703125,10.45547866821289,4.1156325340271,-0.7493851184844971
1789156677420032300,65.0700322265625,8.317456245422363,4.307168960571289,1.6639702320098877
1789156677479968800,65.12996875,12.265495300292969,2.1499931812286377,-1.0965443849563599
1789156677539905300,65.1899052734375,9.38048267364502,3.2345664501190186,0.4357447028160095
1789156677599872500,65.24987255859375,7.376535415649414,3.56017804145813,0.20111294090747833
1789156677659809000,65.30980908203125,7.879317760467529,3.4811692237854004,0.16519992053508759
1789156677719745500,65.36974560546875,6.596025466918945,3.8331170082092285,-0.6823474764823914
1789156677779712500,65.42971240234375,8.305485725402832,3.9887399673461914,-0.7733271718025208
1789156677839618600,65.48961865234375,10.65898609161377,3.971980571746826,-1.8339585065841675
1789156677899585500,65.54958544921875,9.5408935546875,4.970362663269043,-2.10210919380188
1789156677959552500,65.60955249023438,10.953473091125488,4.335899353027344,-0.004788403399288654
1789156678019428000,65.66942797851563,9.469067573547363,3.6559460163116455,-1.9704279899597168
1789156678079395000,65.72939501953125,9.255983352661133,3.1914708614349365,-0.4644751250743866
1789156678139331600,65.78933154296875,8.370129585266113,3.1531636714935303,-0.8044517636299133
1789156678199268000,65.84926806640625,7.395689010620117,3.380612850189209,-0.9624691009521484
1789156678259154200,65.909154296875,7.309497833251953,3.794809579849243,-0.49320554733276367
1789156678319121200,65.96912109375,8.561665534973145,3.9217023849487305,-1.070208191871643
1789156678379057700,66.0290576171875,10.053253173828125,3.5170822143554688,-0.42856210470199585
1789156678438963700,66.08896362304688,10.022128105163574,3.557783842086792,0.028730420395731926
1789156678498900200,66.14890014648438,13.002909660339355,2.647987127304077,-0.272938996553421
1789156678558867500,66.20886743164063,9.911994934082031,3.337517261505127,-0.19871874153614044
1789156678618804000,66.26880395507813,7.441178798675537,3.3423056602478027,0.20350714027881622
1789156678678771000,66.32877099609375,9.136273384094238,3.2776620388031006,-0.21547815203666687
1789156678738707500,66.38870751953125,6.871358871459961,3.598485231399536,-0.3734954595565796
1789156678798644000,66.44864404296875,7.589619159698486,3.7277719974517822,-0.2585737705230713
1789156678858611000,66.50861083984375,8.880094528198242,4.14915132522583,-0.8667010068893433
1789156678918578000,66.56857788085938,9.332598686218262,4.005499362945557,-3.8594532012939453
1789156678978514400,66.62851440429688,8.947132110595703,4.474762916564941,-1.1204863786697388
1789156679038420500,66.68842041015625,12.440272331237793,2.6647465229034424,-2.2816741466522217
1789156679098326500,66.74832641601563,9.861717224121094,3.756502389907837,-1.359906554222107
1789156679158232600,66.80823266601563,8.109161376953125,3.2537200450897217,-0.9552865028381348
1789156679218138600,66.868138671875,8.283937454223633,3.3925838470458984,-0.6871358752250671
1789156679278105600,66.92810571289063,6.596025466918945,3.5170822143554688,-1.5394717454910278
1789156679338072600,66.98807250976563,8.152256965637207,3.8163576126098633,-0.9576807022094727
1789156679398039800,67.04803979492188,9.892841339111328,3.3710360527038574,-1.0031704902648926
1789156679457976300,67.10797631835938,10.101137161254883,4.3191399574279785,-0.15083470940589905
1789156679517943300,67.167943359375,8.31985092163086,4.010287761688232,0.8307880163192749
1789156679577879800,67.2278798828125,12.751518249511719,2.0925323963165283,-0.42856210470199585
1789156679637846800,67.2878466796875,9.86650562286377,3.0119056701660156,-0.17956513166427612
1789156679697783300,67.347783203125,7.920019149780273,3.090914487838745,0.0071826050989329815
1789156679757719800,67.4077197265625,7.15387487411499,3.1938650608062744,-0.38307225704193115
1789156679817625900,67.4676259765625,7.007828235626221,3.6128504276275635,-0.6560112833976746
1789156679877623600,67.52762353515625,8.216899871826172,3.9432501792907715,-0.3878606855869293
1789156679937560000,67.58756005859375,10.472238540649414,4.285621166229248,-1.5322890281677246
1789156679997496600,67.64749658203125,10.524910926818848,4.632780075073242,-2.427720546722412
1789156680057494000,67.70749389648438,10.970232009887695,3.421314239501953,-1.2641384601593018
1789156680117430500,67.76743041992188,9.311050415039062,3.4356794357299805,-1.5849615335464478
1789156680177336600,67.82733666992188,8.722076416015625,2.9233202934265137,-0.727837324142456
1789156680237273000,67.88727319335938,9.071630477905273,2.647987127304077,-1.3407529592514038
1789156680297209600,67.94720971679688,6.756437301635742,3.28963303565979,-0.8547300100326538
1789156680357146000,68.00714599609375,7.778761386871338,3.794809579849243,-0.2968810200691223
1789156680417143800,68.06714379882813,9.421183586120605,4.127603530883789,-0.8140285611152649
1789156680477080300,68.12708032226563,10.96304988861084,3.1938650608062744,-0.8738836050033569
1789156680537047300,68.18704736328125,9.892841339111328,3.9600095748901367,1.3192051649093628
1789156680596983800,68.24698388671875,11.678915977478027,2.279279947280884,-0.4429273009300232
1789156680656920300,68.30692041015625,10.125079154968262,2.9496564865112305,0.038307227194309235
1789156680716887300,68.36688720703125,7.204153060913086,3.098097085952759,0.31364041566848755
1789156680776793300,68.42679345703125,8.631096839904785,3.4308910369873047,0.3758896589279175
1789156680836760300,68.48676025390625,6.734889507293701,3.6822822093963623,-0.1604115068912506
1789156680896666400,68.54666625976563,8.123526573181152,4.0294413566589355,-0.1843535304069519
1789156680956603000,68.60660278320313,8.695740699768066,4.563348293304443,-0.6703764796257019
1789156681016539400,68.66653930664063,9.945513725280762,4.838681697845459,-1.1109095811843872
1789156681076476000,68.72647583007813,9.375694274902344,4.903325080871582,1.192312479019165
1789156681136443100,68.78644311523438,12.349292755126953,2.205059766769409,-2.5785553455352783
1789156681196440600,68.84644067382813,8.62630844116211,4.37420654296875,-0.06703764945268631
1789156681256407600,68.90640747070313,7.307103633880615,3.35667085647583,-0.9313444495201111
1789156681316313600,68.96631372070313,8.133103370666504,3.4165258407592773,-0.7876923680305481
1789156681376219600,69.0262197265625,6.435614109039307,4.0078935623168945,-0.7541735172271729
1789156681436156200,69.08615625,9.346963882446289,4.347870349884033,-0.4357447028160095
1789156681496092700,69.1460927734375,9.330204010009766,3.955221176147461,-0.016759412363171577
1789156681556059600,69.2060595703125,10.864887237548828,4.587290287017822,-0.19393034279346466
1789156681616026600,69.26602661132813,11.003750801086426,3.7421371936798096,0.646434485912323
1789156681675963400,69.32596337890625,10.199298858642578,3.1938650608062744,-0.21787235140800476
1789156681735900000,69.38589990234375,7.625532627105713,3.5410242080688477,0.8810662031173706
1789156681795836400,69.44583642578125,8.11634349822998,3.7014358043670654,0.09816227108240128
1789156681855742200,69.5057421875,6.641515731811523,4.07014274597168,-0.2753331959247589
1789156681915648300,69.56564819335938,7.218518257141113,4.383783340454102,-0.33518823981285095
1789156681975584800,69.62558471679688,9.193734169006348,4.546588897705078,-0.05746084079146385
1789156682035582500,69.68558251953125,10.72602367401123,4.575319290161133,-1.8100165128707886
1789156682095519000,69.74551904296875,9.701305389404297,4.503493309020996,-0.31364041566848755
1789156682155486000,69.80548583984375,11.18092155456543,2.801215887069702,-1.9129672050476074
1789156682215392000,69.86539208984375,9.605537414550781,4.469974517822266,-1.3718775510787964
1789156682275267600,69.925267578125,8.094796180725098,3.157952070236206,-0.7733271718025208
1789156682335234600,69.98523461914063,8.520963668823242,2.8993782997131348,-0.9217676520347595
1789156682395171000,70.04517114257813,6.651092529296875,3.1028854846954346,-0.42377370595932007
1789156682455138000,70.10513793945313,7.592013359069824,3.665522813796997,-0.3495534360408783
1789156682515105000,70.16510498046875,9.263166427612305,4.51067590713501,0.21787235140800476
1789156682575011000,70.22501098632813,9.734824180603027,4.853046894073486,-0.13168109953403473
1789156682634978000,70.28497802734375,10.412383079528809,3.869029998779297,0.7541735172271729
1789156682694914800,70.34491479492188,9.823410034179688,3.021482467651367,-0.5674257874488831
1789156682754881800,70.4048818359375,10.036493301391602,3.1052796840667725,0.3016694188117981
1789156682814757000,70.46475708007813,8.415618896484375,3.622427225112915,0.5482721924781799
1789156682874754800,70.5247548828125,7.60637903213501,3.4811692237854004,0.07900865375995636
1789156682934660900,70.58466088867188,8.106766700744629,3.8163576126098633,-0.8379706144332886
1789156682994597400,70.64459741210938,8.69095230102539,3.8091750144958496,-0.933738648891449
1789156683054503400,70.70450341796875,10.927136421203613,3.928884983062744,-1.6735470294952393
1789156683114409200,70.7644091796875,9.284713745117188,4.999093055725098,-0.3926490843296051
1789156683174407000,70.82440698242188,11.200075149536133,4.378994941711426,0.17477671802043915
1789156683234374000,70.88437377929688,10.216058731079102,2.695871114730835,-1.37906014919281
1789156683294295600,70.94429565429688,8.415618896484375,3.5003228187561035,0.4429273009300232
1789156683354201600,71.00420166015626,8.786720275878906,2.911349296569824,-0.5147533416748047
1789156683414168600,71.06416845703124,7.757213592529297,2.9448680877685547,0.15083470940589905
1789156683474105000,71.12410498046874,7.259219646453857,3.3877954483032227,-0.3758896589279175
1789156683534041600,71.18404150390624,8.913613319396973,3.8139634132385254,-0.08140286058187485
1789156683594008800,71.2440087890625,9.77791976928711,3.6990416049957275,0.038307227194309235
1789156683653975800,71.30397583007813,9.770736694335938,4.292803764343262,-0.28730419278144836
1789156683713912300,71.36391235351563,10.465055465698242,3.711012601852417,1.5921441316604614
1789156683773788000,71.42378784179688,9.84495735168457,3.450044631958008,-0.009576806798577309
1789156683833724400,71.48372436523438,8.760383605957031,3.404554843902588,0.9457096457481384
1789156683893661000,71.54366088867188,7.82185697555542,3.536235809326172,0.3926490843296051
1789156683993545000,71.643544921875,6.7061591148376465,3.9600095748901367,-0.5219359993934631
1789156684053542400,71.70354248046876,9.406818389892578,3.7421371936798096,-0.3280056416988373
1789156684113509400,71.76350927734374,10.010157585144043,4.426878929138184,-1.0223240852355957
1789156684173446100,71.82344604492188,8.834604263305664,4.577713489532471,-0.21787235140800476
1789156684233413000,71.8834130859375,13.225569725036621,3.0190882682800293,0.29209262132644653
1789156684293349600,71.943349609375,9.849745750427246,3.450044631958008,-1.335964560508728
1789156684353286100,72.0032861328125,8.451532363891602,3.047818660736084,-0.05267243832349777
1789156684413192200,72.06319213867188,7.869740962982178,3.0885202884674072,0.19393034279346466
1789156684473128700,72.12312866210938,7.187393665313721,2.9712042808532715,-0.363918662071228
1789156684533126100,72.18312622070313,7.362170219421387,3.6343982219696045,-0.35434186458587646
1789156684593032200,72.2430322265625,9.17697525024414,4.0078935623168945,-0.5889736413955688
1789156684652968700,72.30296875,10.76193618774414,3.6774938106536865,0.6033388376235962
1789156684712905200,72.3629052734375,9.797073364257812,3.9600095748901367,0.7852981686592102
1789156684772841700,72.422841796875,12.246341705322266,2.650381326675415,-0.35434186458587646
1789156684832778200,72.4827783203125,10.522516250610352,2.9328970909118652,0.5961562395095825
1789156684892653800,72.54265380859376,7.350199222564697,3.064578056335449,1.2066776752471924
1789156684952559900,72.60255981445313,6.7061591148376465,2.9448680877685547,0.06224924325942993
1789156685012526800,72.66252685546876,6.66785192489624,3.1483752727508545,-0.4596867263317108
1789156685072463400,72.72246337890626,8.008605003356934,4.0749311447143555,0.06464344263076782
1789156685132399900,72.78239990234376,10.216058731079102,4.271255970001221,-0.8667010068893433
1789156685192366800,72.84236694335938,11.250353813171387,4.144362926483154,-1.1779472827911377
1789156685252334000,72.902333984375,11.044452667236328,4.637568473815918,-0.19871874153614044
1789156685312301000,72.96230102539063,11.719616889953613,2.9233202934265137,-1.2473790645599365
1789156685372207000,73.02220703125,9.708487510681152,3.292027235031128,0.13407529890537262
1789156685432174000,73.08217407226563,7.395689010620117,2.6575639247894287,-0.45250412821769714
1789156685492110600,73.14211059570313,7.038952827453613,2.7700912952423096,-0.42616790533065796
1789156685552077600,73.20207763671876,6.873753070831299,3.3231520652770996,-1.1180921792984009
1789156685612014000,73.26201416015626,8.56884765625,3.9432501792907715,-0.035913024097681046
1789156685671950600,73.32195068359376,9.691728591918945,4.156333923339844,0.05985504388809204
1789156685731887000,73.38188720703126,10.790667533874512,3.883395195007324,-0.11013327538967133
1789156685791884800,73.441884765625,12.236764907836914,2.717418909072876,0.06703764945268631
1789156685851790800,73.50179077148438,11.779472351074219,1.5418659448623657,-1.4844050407409668
1789156685911757800,73.5617578125,7.19936466217041,3.5242648124694824,3.1747114658355713
1789156685971724800,73.62172485351563,6.461950302124023,3.1196448802948,0.33039984107017517
1789156686031691800,73.68169189453126,8.293514251708984,3.0095114707946777,0.043095629662275314
1789156686091628300,73.74162817382812,6.9024834632873535,3.5745432376861572,-0.4908113479614258
1789156686151564800,73.80156469726562,8.880094528198242,3.971980571746826,-0.5363011956214905
1789156686211501300,73.86150122070312,10.78587818145752,4.182670593261719,-1.2234370708465576
1789156686271438000,73.92143798828126,8.779537200927734,4.2975921630859375,-1.2617442607879639
1789156686331344000,73.98134375,14.125789642333984,2.9759926795959473,-0.6416460275650024
1789156686391311000,74.04131103515626,10.824186325073242,3.2154128551483154,-2.2242133617401123
1789156686451247600,74.10124755859376,8.157045364379883,3.0813376903533936,0.4908113479614258
1789156686511214600,74.16121459960938,7.338228225708008,2.8179752826690674,-0.2968810200691223
1789156686571151000,74.22115112304688,6.777985095977783,2.7964274883270264,-0.8403648138046265
1789156686651076600,74.30107666015626,8.360552787780762,3.754108190536499,-0.2944868206977844
1789156686711013000,74.36101318359376,9.255983352661133,3.5266590118408203,-0.31364041566848755
1789156686770919200,74.42091918945313,10.745177268981934,3.840299606323242,0.26575639843940735
1789156686830855700,74.48085571289063,10.512939453125,4.005499362945557,1.8555063009262085
1789156686890792200,74.54079223632813,10.860098838806152,2.3989901542663574,-0.19393034279346466
1789156686950728700,74.60072875976563,9.229647636413574,3.0334534645080566,0.8331822156906128
1789156687010695700,74.66069580078126,8.027758598327637,2.8179752826690674,0.08619125932455063
1789156687070632200,74.72063208007812,6.825869083404541,3.205836057662964,-0.004788403399288654
1789156687130507800,74.7805078125,7.546523571014404,3.4739866256713867,-0.2322375625371933
1789156687190474800,74.84047485351563,9.258378028869629,3.8498764038085938,-0.8930372595787048
1789156687250380800,74.900380859375,11.312602996826172,3.8953661918640137,-1.1468225717544556
1789156687310347800,74.96034765625,9.72285270690918,4.941632270812988,-1.5083470344543457
1789156687370223400,75.02022338867188,12.210428237915039,3.825934410095215,0.026336219161748886
1789156687430129400,75.08012939453126,11.003750801086426,2.9664158821105957,-2.1954829692840576
1789156687490035500,75.14003540039063,8.822632789611816,2.9305028915405273,0.7493851184844971
1789156687549972000,75.19997192382813,7.194576263427734,2.5905263423919678,-0.5410895943641663
1789156687609969400,75.25996948242188,7.036558628082275,2.557007312774658,-0.5147533416748047
1789156687669906000,75.31990600585938,6.643909931182861,3.4093432426452637,-0.47644615173339844
1789156687729842400,75.37984252929688,9.32541561126709,3.469198226928711,-0.4357447028160095
1789156687789779000,75.43977905273438,10.584765434265137,4.158728122711182,0.7565677165985107
1789156687849685000,75.49968505859376,10.697293281555176,4.050989151000977,1.7573440074920654
1789156687909682700,75.5596826171875,11.899182319641113,2.75812029838562,0.31603461503982544
1789156687969619200,75.619619140625,10.831368446350098,2.75812029838562,0.08379705995321274
1789156688029555700,75.6795556640625,8.722076416015625,3.07415509223938,0.10295066982507706
1789156688089492200,75.7394921875,7.0557122230529785,3.399766445159912,-0.043095629662275314
1789156688149489700,75.79948974609376,7.1490864753723145,3.450044631958008,0.4812345504760742
1789156688209426200,75.85942626953126,7.553706169128418,3.931279182434082,0.646434485912323
1789156688269393400,75.91939331054688,8.779537200927734,4.062960147857666,-0.6488286852836609
1789156688329360400,75.9793603515625,10.41956615447998,4.271255970001221,-1.7070658206939697
1789156688389339000,76.0393388671875,8.573636054992676,3.9432501792907715,0.5889736413955688
1789156688449305900,76.09930590820312,10.340557098388672,2.454056739807129,-0.5746083855628967
1789156688509303600,76.15930346679687,9.344569206237793,3.49314022064209,-0.15322890877723694
1789156688569209600,76.21920971679687,8.614337921142578,2.80361008644104,-0.272938996553421
1789156688629085000,76.2790849609375,8.547300338745117,3.0861260890960693,0.33518823981285095
1789156688688960500,76.33896044921875,7.362170219421387,3.337517261505127,0.3016694188117981
1789156688748958000,76.3989580078125,8.513781547546387,3.514688014984131,0.6536170840263367
1789156688808864000,76.45886401367187,10.141838073730469,2.9041666984558105,1.1276689767837524
1789156688868800500,76.51880053710937,11.959037780761719,2.6192567348480225,1.314416766166687
1789156688928737000,76.57873706054687,11.379640579223633,2.406172752380371,3.043030261993408
1789156688988673500,76.63867358398437,10.122684478759766,2.1739351749420166,-0.004788403399288654
1789156689088588300,76.73858837890624,8.60236644744873,2.9951462745666504,0.12210428714752197
1789156689148524800,76.79852490234374,6.821080684661865,3.1938650608062744,0.7206547260284424
1789156689208430600,76.8584306640625,7.273584842681885,3.203441858291626,0.0694318488240242
1789156689268367400,76.91836743164062,8.482656478881836,3.6607344150543213,-0.7038952708244324
1789156689328303900,76.97830395507812,11.233593940734863,3.6750996112823486,-1.015141487121582
1789156689388209700,77.03820971679687,10.036493301391602,4.311957359313965,-1.8052281141281128
1789156689448146200,77.09814624023437,12.215216636657715,2.911349296569824,-0.31842881441116333
1789156689508082700,77.15808276367187,9.93593692779541,2.8802247047424316,-2.3319525718688965
1789156689568019500,77.21801953125,9.287108421325684,2.674323320388794,0.8451532125473022
1789156689627986400,77.277986328125,7.987056732177734,2.473210334777832,-0.5578489899635315
1789156689687953400,77.33795336914062,7.972691535949707,2.2625205516815186,-0.5913678407669067
1789156689747890000,77.39788989257812,7.158663272857666,3.0765492916107178,-0.48602294921875
1789156689807796000,77.4577958984375,8.983044624328613,3.1268274784088135,0.14844051003456116
1789156689867732500,77.517732421875,12.143390655517578,2.9735984802246094,0.790086567401886
1789156689927699500,77.57769946289062,9.6989107131958,3.2082302570343018,1.5275006294250488
1789156689987636000,77.63763598632812,11.046846389770508,2.169146776199341,0.3974374830722809
1789156690047572500,77.69757250976562,9.931148529052734,2.6360161304473877,0.40701428055763245
1789156690107509000,77.75750903320312,7.129932880401611,2.896984100341797,1.6304513216018677
1789156690167415000,77.8174150390625,7.750030994415283,2.5234885215759277,0.0933738648891449
1789156690227351600,77.8773515625,6.660669326782227,3.1675288677215576,0.07661445438861847
1789156690287318500,77.93731860351562,7.326257228851318,3.689464807510376,0.1843535304069519
1789156690347255300,77.99725537109374,10.60152530670166,3.627215623855591,-1.3239935636520386
1789156690407191800,78.05719189453124,11.595118522644043,3.4787750244140625,-1.3192051649093628
1789156690467158800,78.11715869140625,10.92953109741211,4.197035789489746,-0.42856210470199585
1789156690527095300,78.17709521484375,12.06198787689209,1.6831238269805908,-1.9752163887023926
1789156690587092700,78.2370927734375,11.23598861694336,2.631227731704712,-1.1228805780410767
1789156690686976800,78.33697680664062,8.176198959350586,2.2218191623687744,-0.2322375625371933
