time,accelerometer x,accelerometer y,accelerometer z,gyroscope x,gyroscope y,gyroscope z,latitude,longitude,speed
0.0,0.1488387584686279,-0.890873908996582,-0.9074125289916992,-0.0177150927484035,0.0537561401724815,0.0012217304902151,30.3517848,76.3645279,1.5
0.1,-0.16316075704177257,-0.3533202778140463,-0.7913541030971771,-0.6241706692816497,-0.38782184449246976,0.20976734491688248,30.3517848,76.3645279,1.5
0.2,0.2668800361520421,-1.3734012966040547,1.136140411839869,-0.7599218795939724,-0.7596974235076065,-0.33357751830423454,30.3517848,76.3645279,1.5
0.30000000000000004,-1.8435060238505918,1.249579507713038,-0.3526952929208522,-0.7460414714387394,-0.05162341047953678,-0.021382800137750936,30.3517848,76.3645279,1.5
0.4,-1.6395127959247915,0.4263929767651944,0.39583970449949885,-0.309810904731212,0.3485449736233899,-0.20355909308632,30.3517848,76.3645279,1.5
0.5,-2.6383480290056993,1.7542286226718529,0.4070639203077365,-0.2781030851931158,-0.13810715317807132,-0.02332346772234503,30.3517848,76.3645279,1.5
0.6000000000000001,2.108658005145264,-0.8167263812800365,-2.4012151330555076,0.7281716050973237,1.6327844426626303,0.8460274212568478,30.3517848,76.3645279,1.5
0.7000000000000001,-3.263210961091203,1.0815465864266942,0.6917163907505792,-0.07573444255145567,0.14860920395664468,-0.5281570123242363,30.3517848,76.3645279,1.5
0.8,-0.893373852209891,0.6885603008571201,-0.060583734200516326,-0.5471824921978575,-0.7748686307510452,-0.1805404650431971,30.3517848,76.3645279,1.5
0.9,-1.2899129678887518,0.6038554532581475,-0.3669908283950976,-0.015696753085850848,0.06751721719171261,0.08248949125335645,30.3517848,76.3645279,1.5
1.0,0.1836832679870983,-0.10488379289826985,-0.010463492403355486,-0.08064419641460181,0.005795819501152377,0.02565673662094293,30.3517848,76.3645279,1.5
1.1,0.12013450950305071,-0.06779838450700061,0.02235393353253301,-0.10785711738758155,-0.13661671779567544,-0.06155549044362547,30.3517848,76.3645279,1.5
1.2000000000000002,-0.03861881142673114,-0.04792348926550118,0.1627796865977532,0.018760008842454226,0.05320339306063527,-0.03357282011183643,30.3517848,76.3645279,1.5
1.3,0.09138147552520975,-0.06696650380545856,0.01150095697797382,-0.053264356394322074,-0.04880591127261012,-0.006995367857873453,30.3517848,76.3645279,1.5
1.4000000000000001,-0.03801466934561616,0.012592868637273654,-0.06240635390880937,-0.03592679901285878,-0.07306509798400332,0.011594895960265954,30.3517848,76.3645279,1.5
1.5,-0.12744704678060775,-0.04002328760391436,-0.08794447739316856,-0.02677357489978735,-0.050740577877028036,0.03328279267002067,30.3517848,76.3645279,1.5
1.6,-0.20282104286460367,-0.052541067769629336,-0.09987992329195386,0.010420406918411992,-0.029208907214716362,0.012292572507510122,30.3517848,76.3645279,1.5
1.7000000000000002,0.02524603354903813,-0.046125549603420364,0.019510957250709813,-0.016564735981309114,-0.00892777945843382,0.02087485048898409,30.3517848,76.3645279,1.5
1.8,0.07130905830197212,-0.03712300256754615,-0.06382185399520712,-0.029587323529786734,0.01990056893294979,0.01077168468398418,30.3517848,76.3645279,1.5
1.9000000000000001,0.01916440162721512,0.04651524763801746,0.2657272970105632,-0.03414108772703943,0.012280969870468568,-0.014485439034816305,30.3517848,76.3645279,1.5
2.0,0.19149539299855295,-0.08568377046868217,-0.05275732533086001,0.03232517644296849,-0.043080675509536134,0.010422056156908431,30.3517848,76.3645279,1.5
2.1,-0.02302734783818918,-0.02905002427400234,-0.2646237095540719,0.03269057788567002,-0.004702838663136979,-0.06143276229439512,30.3517848,76.3645279,1.5
2.2,-0.04861271609470008,-0.029639273435346974,0.08558379989133136,-0.0744410093117982,-0.04220548510871304,-0.12072754400868856,30.3517848,76.3645279,1.5
2.3000000000000003,-0.2912841977404331,0.14824362439189864,0.10401332052930215,-0.058970384495476987,0.03509316865484056,-0.062356718111850964,30.3517848,76.3645279,1.5
2.4000000000000004,0.08904007663462214,0.002601507609613286,-0.03644087237499531,0.09077342915148753,0.0990193280074741,-0.06855824628210612,30.3517848,76.3645279,1.5
2.5,0.0780126031895909,-0.04139802967719442,0.007563207760253821,0.008200386511218523,-0.022336775281475825,-0.022164122345713022,30.3517848,76.3645279,1.5
2.6,-0.07680040943106868,0.01110389564177845,0.1010030317170944,-0.03820975749935236,0.003569920643442085,-0.03810236234470799,30.3517848,76.3645279,1.5
2.7,0.08509813116772746,0.05696602197553613,-0.049172861029125,-0.010866450185570729,-0.021811582987043533,0.020859201065972405,30.3517848,76.3645279,1.5
2.8000000000000003,-0.10149368238172533,0.02540475781634253,-0.048837708675963196,0.003456031687070201,-0.005128694132110333,-0.006551482375962776,30.3517848,76.3645279,1.5
2.9000000000000004,-0.06591535929444273,-0.023587929458822404,-0.08859916191493739,0.007247053456142169,-0.008177391342494003,-0.02142194840600565,30.3517848,76.3645279,1.5
3.0,-0.04572486754448903,0.0034941808839260464,0.00489331477947795,-0.004473869734490479,-0.006275380617433144,-0.023395148913132876,30.3517848,76.3645279,1.5
3.1,0.09611486291181905,-0.0028994728139897005,-0.03136448421329273,-0.008382538952266134,-0.0032278715577567646,-0.012793461083536461,30.3517848,76.3645279,1.5
3.2,-0.029602181926430618,0.02363057475996573,0.013109595721680654,-0.028069636294750972,-0.04031410446741678,-0.031822319250074636,30.3517848,76.3645279,1.5
3.3000000000000003,-0.038095253164964205,0.04140769358398179,0.016740441707764443,-0.0009888533185739247,0.010971320379524216,-0.04466859562145073,30.3517848,76.3645279,1.5
3.4000000000000004,-0.04939800946514571,-0.008514960895418366,-0.042873559239736514,0.004836062349578547,-0.005947505266356042,0.0024746947797617547,30.3517848,76.3645279,1.5
3.5,0.0003415316491856696,-0.025364400586645366,0.12532003773520636,-0.007722078840897562,0.008777802298602002,-0.028770348200280717,30.3517848,76.3645279,1.5
3.6,0.02595338294710347,0.025132587029412033,0.2587465129441261,0.058317032644687725,-0.09330782529144885,0.001328897680603923,30.3517848,76.3645279,1.5
3.7,0.06908837402025225,-0.020030594340465693,0.08163213306246511,0.18862580345079805,-0.10085924059646181,-0.018787374945990146,30.3517848,76.3645279,1.5
3.8000000000000003,0.06319476614301749,-0.04378314711619303,0.09422691786761134,-0.004441244702267394,0.05734584362521389,0.006892841797947573,30.3517848,76.3645279,1.5
3.9000000000000004,0.019412163864717218,-0.013966901750181775,-0.07686342108103345,-0.06927966253491029,0.04679547603547835,0.00888581202735179,30.3517848,76.3645279,1.5
4.0,0.01064414611571051,-0.008708921085521465,0.06658038193546917,-0.03042733750100883,0.03059818437931437,0.0017609023036844937,30.3517848,76.3645279,1.5
4.1000000000000005,-0.01970602766217089,-0.012199236250549347,-0.009594002706557875,-0.010150706563543721,0.0013595706854634972,0.005616796477771793,30.3517848,76.3645279,1.5
4.2,0.033668700540822216,0.006514306555574556,0.008486968421040242,-0.021186891524565314,0.01780223292605682,0.0,30.3517848,76.3645279,1.5
4.3,0.062414650331052826,-0.00454738495398878,0.048263927756536075,-0.013685205679381973,0.011603399037111902,-0.008575817906164303,30.3517848,76.3645279,1.5
4.4,-0.07891593691086218,-0.044300148144087746,0.19200151189363537,-0.010883716815566668,-0.015121765728026842,-0.016462954678443914,30.3517848,76.3645279,1.5
4.5,-0.21676164509004814,-0.033675573646574974,-0.43961736630173287,0.0435692058092138,0.045961378298583155,-0.008705060362790196,30.3517848,76.3645279,1.5
4.6000000000000005,0.14253421912782369,0.013949261214847157,0.5690427329430283,-0.24551732565005813,-0.09527493761700781,0.05570516900025326,30.3517848,76.3645279,1.5
4.7,0.29254439127467335,0.015337730484386901,-0.01160433559935048,-0.13142227687874347,-0.048449282313326784,0.020606285084871147,30.3517848,76.3645279,1.5
4.800000000000001,-0.19113815067432394,-0.12292845321473646,-0.0841313306255978,-0.02041085319692933,-0.06672285719632835,0.004876203278841744,30.3517848,76.3645279,1.5
4.9,-0.030914387959797677,0.05565720411292095,-0.14374817322631445,-0.12892101112705373,0.01033080881346192,0.008505697250209535,30.3517848,76.3645279,1.5
5.0,-0.12195937547042954,0.16245410804949137,-0.19889550567762304,-0.02116575020167575,0.021266750170356986,-0.01527789769433379,30.3517848,76.3645279,1.5
5.1000000000000005,-0.24937995221212733,0.1109044888937015,-0.09991371667925689,-0.07669058008456756,0.016879548039961542,0.015307696734323549,30.3517848,76.3645279,1.5
5.2,-0.5020201329710325,0.14427756574894293,0.26889779330885344,-0.0766724162712411,0.015419654413410935,0.06812979319070858,30.3517848,76.3645279,1.5
5.300000000000001,0.16184917584266245,0.05356924671328536,-0.023434922162442598,0.021166689583192472,0.020533700132741715,0.18530966149663314,30.3517848,76.3645279,1.5
5.4,0.46144951553386027,0.2558216240005772,-0.4440321172430143,0.02364913995930594,0.03131162469300684,-0.01422268127532924,30.3517848,76.3645279,1.5
5.5,0.19493771267466203,0.6507505492153213,-0.506720259233524,0.2828498059288759,0.06882415796488726,-0.03531491711418802,30.3517848,76.3645279,1.5
5.6000000000000005,0.1854065821891164,0.21755949637644414,0.3923265514264861,-0.06980936454057457,0.04573752099707294,0.038859197203009885,30.3517848,76.3645279,1.5
5.7,-0.0871494937423058,0.4109251311096705,-0.44617105393095285,-0.12075907059744942,-0.03696198137448492,0.015443833289204453,30.3517848,76.3645279,1.5
5.800000000000001,-0.5191125422632045,0.19669497732398758,0.6349354949080076,0.01134361816597844,-0.5328082177812695,-0.16073475967531606,30.3517848,76.3645279,1.5
5.9,-0.3063664130903615,0.06471774697850238,-0.30912930999439203,0.22342969114339667,0.06205438921949519,-0.113028879298369,30.3517848,76.3645279,1.5
6.0,-0.29565349324568485,-0.06405145172290977,0.28046034852176555,0.24773180613222537,0.1202556405888609,-0.019420356074651014,30.3517848,76.3645279,1.5
6.1000000000000005,-0.5829398546408162,-0.57719888359416,1.4172363165079114,0.011529924446739774,0.1708355337112801,0.044243148618285696,30.3517848,76.3645279,1.5
6.2,-0.7789838898650985,-0.6651164195805815,1.04281351482443,-0.40828677748528447,0.25252051022092514,0.04971557627899625,30.3517848,76.3645279,1.5
6.300000000000001,-0.5423607649998633,-0.9883446993206999,0.42414797701090234,0.26470059049684125,0.03212270176556575,0.35404397161558676,30.3517848,76.3645279,1.5
6.4,0.7054504631676033,0.3145779507001652,-1.6288691334403569,0.28137270213657356,0.08175381065506773,0.40719284179200016,30.3517848,76.3645279,1.5
6.5,0.19968362237118253,0.34784911381825967,-1.3645514007633346,0.3787182069750689,-0.09929714970601791,0.2023534043592726,30.3517848,76.3645279,1.5
6.6000000000000005,0.06772721114540914,0.04684133283064212,1.0137323944290744,0.01580973879986855,-0.1534004726126439,-0.08541589966831026,30.3517848,76.3645279,1.5
6.7,1.010706207580075,0.4893973940253787,0.12165932613685537,0.15830724926433262,0.006349220023275037,-0.17994638685757464,30.3517848,76.3645279,1.5
6.800000000000001,0.7853852225783176,0.43641924322451575,0.5033540883549094,-0.5092288128167828,-0.06812895432463874,-0.6335572953225098,30.3517848,76.3645279,1.5
6.9,0.6592969837795098,0.09818841824818808,-0.6843452498582764,0.04681882378555305,-0.08634342590437881,-0.28231228194863756,30.3517848,76.3645279,1.5
7.0,0.2883073410612159,-0.119119785289302,-1.359406668932722,0.2553639504182097,-0.11470780521977936,-0.20105295281425922,30.3517848,76.3645279,1.5
7.1000000000000005,-0.6725282748604042,0.19004765940062485,0.4870826601256585,0.04143753307592724,-0.2025256891603936,-0.271075149587831,30.3517848,76.3645279,1.5
7.2,-0.4561795488588573,0.73857031184946,-0.04471520597075429,0.06871259964620177,-0.08145348651689094,0.09097509274809923,30.3517848,76.3645279,1.5
7.300000000000001,-0.21901320327531526,-0.4666994935089294,1.2604401011083317,-0.030129533502335493,0.007269365138455414,0.08541049252945038,30.3517848,76.3645279,1.5
7.4,-0.4126288392777022,-0.7857267881208645,-0.35839603921953844,-0.11454661789606835,0.3055765840629129,0.02671224661386811,30.3517848,76.3645279,1.5
7.5,-0.2333523858308258,-1.0373032903343569,-0.4454120289721497,0.015678457827806386,0.06193407485398639,0.13978455556074548,30.3517848,76.3645279,1.5
7.6000000000000005,0.015212571995889698,-0.14371721950046443,-0.6164631749249172,-0.06067693136101629,-0.02089192169449166,0.07858576493668055,30.3517848,76.3645279,1.5
7.7,0.5525100570911051,0.23873014120989666,0.9552288276397566,0.1109700738214426,-0.08497301348761471,0.06599431342275316,30.3517848,76.3645279,1.5
7.800000000000001,1.62795337422629,0.12635295425817683,1.3354089478584186,-0.02496011035843164,0.11745387615178404,-0.01075547560926889,30.3517848,76.3645279,1.5
7.9,0.24957879658179571,-0.38225607368302295,1.089708435265413,-0.3864631137692317,-0.3286568324854399,-0.5346846277701213,30.3517848,76.3645279,1.5
8.0,1.167393985850603,-0.2124063647813142,-1.6423752237270681,-0.027117432853500135,-0.14718884660288878,-0.14589517193107687,30.3517848,76.3645279,1.5
8.1,0.6615676599914246,0.3307277470959542,-0.9668642588708938,0.058476504447501985,-0.15764956377998735,-0.1287187731375791,30.3517848,76.3645279,1.5
8.200000000000001,-0.22838371793409942,0.19576140488199612,0.7253763788775458,-0.05553562105322446,-0.04923833760786502,-0.10520472106088667,30.3517848,76.3645279,1.5
8.3,-1.146127578451898,0.1954334672761834,0.9502765897993313,0.03840943871101918,0.03359025059107833,0.2024262242259839,30.3517848,76.3645279,1.5
8.4,-1.3405456721957418,-0.8573694454624992,1.1278273512320047,-0.21454213006264103,-0.2238809675815523,0.1347901728578884,30.3517848,76.3645279,1.5
8.5,-0.26861127613509844,-1.0117625726977721,-0.14604772804905894,0.1717639184251855,0.15814361115770897,0.5277774935560964,30.3517848,76.3645279,1.5
8.6,-0.2980611728564567,-0.887670375017084,-1.119929971057637,0.006631825120355671,0.185059265832097,0.49988233686326944,30.3517848,76.3645279,1.5
8.700000000000001,-0.09774699104752238,-0.3165548587785627,0.3969175638801463,0.22942744433832862,0.002646256921798002,0.2573860946509312,30.3517848,76.3645279,1.5
8.8,0.08612525895391765,-1.0539342892679304,1.9771291210588724,0.06474548672798582,-0.15323039017781426,-0.13213648964447916,30.3517848,76.3645279,1.5
8.9,0.6717505656732878,-1.6988634013303545,1.6452552737389796,-0.3199224338047132,-0.06492883831800039,-0.552545288211066,30.3517848,76.3645279,1.5
9.0,1.0840593117612392,-0.8964309238869506,-0.7188649575820105,-0.6302298432502856,-0.01211582324956647,-0.4257890925646341,30.3517848,76.3645279,1.5
9.1,0.5347893705343686,-0.47380625095876294,-2.135357777404256,0.23331755571981005,0.06850744678223736,-0.1155986673170414,30.3517848,76.3645279,1.5
9.200000000000001,-0.013700378804058753,0.3127629891441645,-0.7829592477340505,-0.007783600327988374,-0.07325069168581592,-0.19352766056520332,30.3517848,76.3645279,1.5
9.3,-1.6741112139364096,0.38877947610617003,0.8072409015986179,-0.1302030415090205,0.004310541891763886,0.0493733258075128,30.3517848,76.3645279,1.5
9.4,-1.1277255076205404,-0.4609773867126782,2.6545489443854535,-0.41942448443568353,0.32699477209992267,0.24254608716593895,30.3517848,76.3645279,1.5
9.5,-0.33947735075179597,-0.6272769665022563,0.14775286849131344,0.10532654928829277,0.4298143777708936,0.30098107764302207,30.3517848,76.3645279,1.5
9.600000000000001,-1.2194574265891651,-1.548090361940592,-1.3674670769993327,0.18692536256706033,-0.1515234182344501,0.32926944638888367,30.3517848,76.3645279,1.5
9.700000000000001,-0.3513042588407425,-0.9827047589898228,-0.4361746280362732,0.2279688298395538,0.10394217676833557,0.49973594055993364,30.3517848,76.3645279,1.5
9.8,0.3223231396919887,-0.6001331040856809,1.0172346428204018,0.1999088641995896,-0.2072207649092883,0.1934770845052068,30.3517848,76.3645279,1.5
9.9,-0.4984813900752737,-1.3520531885997418,3.5208698881617515,-0.03244594154899147,0.13687972464833476,-0.13735497882509914,30.3517848,76.3645279,1.5
10.0,0.19875655397325764,-1.05997060302363,0.6432610703791732,-0.43384212519105425,-0.17312138056339665,-0.5156113867428397,30.3517848,76.3645279,1.5
10.100000000000001,0.9897100832649411,-0.687316624915859,-1.3906823265800716,0.48114271316619206,-0.035153935342804435,0.1291728489089772,30.3517848,76.3645279,1.5
10.200000000000001,0.4497962559731185,-0.31145003186562836,-0.6622450968750676,0.26231217010009605,0.13714634712723667,-0.07198604147340669,30.3517848,76.3645279,1.5
10.3,-0.17678238839432925,-0.043844164953205915,1.0178180531476395,-0.03142497665024607,0.1935251266934176,-0.1039299907033086,30.3517848,76.3645279,1.5
10.4,0.8061755029597373,-0.38233044714732123,1.5001321571779664,-0.16735583749098204,-0.13697559068667686,0.24772931824006408,30.3517848,76.3645279,1.5
10.5,-0.961575785299269,-0.5259480157081421,0.6692894101799359,-0.16409671131343273,-0.027043783483137795,0.012424605483881024,30.3517848,76.3645279,1.5
10.600000000000001,-0.3804574535791757,-1.1903047865077268,-0.5392754021832039,-0.26626183389430336,0.011639560718633368,0.10348027627669719,30.3517848,76.3645279,1.5
10.700000000000001,-0.2036361933820809,-0.851729111246284,-1.0526500294062484,-0.05153894621123791,-0.056739690225450876,0.002812868240277407,30.3517848,76.3645279,1.5
10.8,-0.29771104957681116,-0.02190092861511428,0.5096904478777369,-0.014510263781806344,-0.28511427488519314,0.03721116033946452,30.3517848,76.3645279,1.5
10.9,0.09612940455759483,-0.32986556622297813,1.890097026444385,0.01740817045733271,-0.05530467501905667,-0.283571387548891,30.3517848,76.3645279,1.5
11.0,0.27388975010310346,-1.6719549787199457,1.3107774662945104,-0.2756408790835242,-0.08211535376541224,-0.6773121410273695,30.3517848,76.3645279,1.5
11.100000000000001,0.2327838816745359,-0.7668208782121051,-0.7066665034670436,-0.2129980948396234,0.019405521568980427,-0.5487503394321988,30.3517848,76.3645279,1.5
11.200000000000001,0.09460011940585861,0.004087974824905194,-1.9271529892393642,0.15132148419370986,0.0314565195388824,-0.15289103272667198,30.3517848,76.3645279,1.5
11.3,-0.25394145088994136,0.22419652383241945,0.3180185290178662,0.05994925893858766,-0.10557498420840805,-0.21994092030000562,30.3517848,76.3645279,1.5
11.4,-0.06122438398746016,0.4029594563598589,2.2320784497409742,-0.13552468864499945,0.1245728185501002,0.025530015902596313,30.3517848,76.3645279,1.5
11.5,-0.4254449037276984,-1.3460622193658534,1.0240024414263265,0.22183581510253422,0.13736371983245654,0.4984454458348425,30.3517848,76.3645279,1.5
11.600000000000001,0.19833208045772333,-1.2539455359952703,-0.1879315485345081,-0.2354554776899434,0.08200868456313595,0.19071090921640899,30.3517848,76.3645279,1.5
11.700000000000001,-0.6679009028215708,-0.6747381277703907,-1.5766658766686021,0.2767460681428165,-0.26675142535730967,0.19320528067301523,30.3517848,76.3645279,1.5
11.8,-0.8359478480855222,-0.32161895458692613,-1.09030898429982,-0.04423762046460162,-0.09428796636299502,0.19180930946467764,30.3517848,76.3645279,1.5
11.9,0.09056653435279133,0.060050820984769174,1.0370918879213036,0.17449817307490995,-0.11775637780694033,0.15191937512885742,30.3517848,76.3645279,1.5
12.0,1.0796875345124033,-0.20931641628823033,2.116167032475302,0.1935176158546999,0.03882176814720826,-0.025361593724127718,30.3517848,76.3645279,1.5
12.100000000000001,0.461058945856599,-0.8886857996217119,1.0447605424199855,-0.15772370412346146,0.04451879161316835,-0.5051837123172015,30.3517848,76.3645279,1.5
12.200000000000001,1.2815328140019775,-0.5915848626557633,-1.1109364188803208,-0.02906738831174438,0.003211730550183145,-0.1640019560147628,30.3517848,76.3645279,1.5
12.3,0.7169497790095715,-0.09778688687828997,-1.7000050574901524,0.2656669354458434,0.025127331850604104,-0.05243877238457181,30.3517848,76.3645279,1.5
12.4,-0.36396956726578245,0.17958481378896282,0.23604841835601142,-0.12772414278238137,0.05104591215240409,-0.1880720887434621,30.3517848,76.3645279,1.5
12.5,0.5893878729761448,0.7488102606039239,1.135258481309937,0.13544796161599112,0.22509022537195297,0.4387211030497474,30.3517848,76.3645279,1.5
12.600000000000001,0.6830340387472547,-0.42462132709102063,1.2195231556293038,0.3044085638803112,0.13066204070011814,0.6921672638687344,30.3517848,76.3645279,1.5
12.700000000000001,0.6710805747542116,-1.0126396449781858,-0.05539670799277188,-0.2737326370264679,0.5349274672737799,0.3559059326692877,30.3517848,76.3645279,1.5
12.8,0.2464036601039393,-0.8215235662901249,-0.8217310247745901,-0.31147284377229534,-0.06432235551197621,-0.04091028406977382,30.3517848,76.3645279,1.5
12.9,0.025874467442393023,-0.36399433314014396,-0.6206645471787456,0.044802639585189534,-0.15741627177448986,0.12079216920005648,30.3517848,76.3645279,1.5
13.0,1.0094111849821368,-0.547813355447893,2.013940935444392,-0.06657468618347727,-0.17940893791032347,0.14659418292792914,30.3517848,76.3645279,1.5
13.100000000000001,0.5848186238515228,-0.6015450830629558,1.4579529488542349,0.35231323856687,0.15665968422001453,-0.16959874850170337,30.3517848,76.3645279,1.5
13.200000000000001,0.3775542215108654,-1.1010801210331969,0.6728057285401295,-0.5815443072624037,0.1047563755623023,-0.675078444382442,30.3517848,76.3645279,1.5
13.3,1.1157205351940918,-0.6041165775535758,-0.5630068379500899,-0.4193499445769534,0.25606692501331624,0.1586597674988012,30.3517848,76.3645279,1.5
13.4,1.0229495266076665,-0.33003795712455364,-1.216997538378647,0.5346296562989366,-0.45068524275200617,-0.34081409531033346,30.3517848,76.3645279,1.5
13.5,0.19826388214641633,0.15215339825774366,0.987773169644554,-0.31837532914931654,-0.012634669525836223,-0.05324883220898489,30.3517848,76.3645279,1.5
13.600000000000001,1.106813732400489,0.8420180564905835,1.264586501308723,-0.029004752890952723,0.1442158408848308,0.20857018002298908,30.3517848,76.3645279,1.5
13.700000000000001,-0.37984198050835427,-0.25846845232102655,1.4609142508344584,-0.16220244200765127,-0.20111320636941654,0.03067783488360326,30.3517848,76.3645279,1.5
13.8,0.9124833578325589,-0.6209407100369886,-0.960600993253512,0.09250023297594884,0.08770910773693641,0.4864118899232432,30.3517848,76.3645279,1.5
13.9,0.4949016108439881,-0.5152919813995668,-0.8536840596365508,0.03834052118234885,0.08878742686478444,0.22730129241483732,30.3517848,76.3645279,1.5
14.0,0.1000931232291694,-0.18002002273788856,-0.3820107146032362,0.1373503889399687,-0.189340559768225,0.055071813124111024,30.3517848,76.3645279,1.5
14.100000000000001,0.2390269759653817,-0.36578867804264803,1.602904235946494,0.2162208505465009,-0.1429313681102719,-0.14899104482089492,30.3517848,76.3645279,1.5
14.200000000000001,0.8125503154899907,-0.06702949121058513,1.0806566253303576,-0.07063745715279876,-0.22542215516676822,-0.38340690286041545,30.3517848,76.3645279,1.5
14.3,0.679367180886938,-0.5510958309408857,-0.252861342643776,-0.3273451844348463,-0.065828012774471,-0.5302040520588938,30.3517848,76.3645279,1.5
14.4,0.48638373783930944,-0.21811380838199582,-1.753905803056007,-0.014264147701667857,-0.040981531910343684,-0.47143835448176713,30.3517848,76.3645279,1.5
14.5,0.5160853662988296,0.18094068002124591,-1.118070806820263,0.010723639045546607,-0.06126671463750462,-0.3508348285759518,30.3517848,76.3645279,1.5
14.600000000000001,-0.662413270536641,0.6526964452617834,1.344561091660056,-0.14106006012475977,-0.12976453787086184,-0.21851534875011897,30.3517848,76.3645279,1.5
14.700000000000001,-1.0048845911439173,0.04791609162852373,1.574067515959134,-0.0854120882614883,0.28100473768034645,0.14925923066906735,30.3517848,76.3645279,1.5
14.8,-0.021139040544921328,0.4503758311242323,0.4146501559042891,-0.3334594434687017,0.2915856592510018,0.16307861211076,30.3517848,76.3645279,1.5
14.9,-0.0674177448908313,-0.3195667257252996,-1.2113203304315114,0.005567951714207556,-0.03581613698679598,0.21396904429640393,30.3517848,76.3645279,1.5
15.0,-0.1986574868739285,0.16426515260444607,-1.7381951815463892,0.17909023461167492,-0.1322909515028081,0.21934353497251208,30.3517848,76.3645279,1.5
15.100000000000001,-0.09383977047389484,0.20472359775455082,0.3804075901874706,0.12718672671730985,-0.2909840786776266,0.05918865350427381,30.3517848,76.3645279,1.5
15.200000000000001,0.48947784915625253,-0.030140424238506436,1.3690556899196535,0.054868301693795585,-0.19974086333009003,-0.18246896954350222,30.351784770677547,76.3645279130322,1.5
15.3,-0.04332198824942393,-0.8254066604720934,1.5347505455763,-0.3788162110365393,-0.07011697652607325,-0.5648714769861441,30.351784575195364,76.36452799991316,1.5
15.4,0.6124133525056019,-0.22110525721308472,-1.2531178650312538,-0.04248363170512348,-0.05415371958396814,-0.1722860453197706,30.351784379713177,76.36452808679414,1.5
15.5,0.4688091961665859,0.31008643454141827,-1.7894407190248278,0.10049263323647525,0.002172290040816178,-0.04400249669968123,30.35178418423099,76.36452817367511,1.5
15.600000000000001,-0.12424566058212597,0.5278498792829285,-0.026683883291571897,-0.054074344701686664,-0.023342807548527484,-0.06393352547251237,30.351783988748803,76.36452826055609,1.5
15.700000000000001,-1.2596206573845101,0.6295626711558155,1.0532713132328084,-0.005234385723383948,0.06411008269780877,0.15446563667805085,30.35178379326662,76.36452834743706,1.5
15.8,-0.17720007436095586,-0.5542066540057066,2.054218886791152,-0.4351001527400486,0.052901073520412956,0.20191692928647728,30.351783597784433,76.36452843431803,1.5
15.9,0.7825335658418249,-1.0100056146763905,-0.7526179720469619,0.020657230997522938,0.24907962151121857,0.49785373264402033,30.351783402302246,76.364528521199,1.5
16.0,0.08728368664308755,-0.9783187465377902,-1.871433068284691,-0.06468056033352254,-0.040488932967495034,0.21801963172697295,30.351783206820063,76.36452860807997,1.5
16.1,-0.010925178351831641,-0.6123041093741768,0.07364480073653124,0.1922844095182574,-0.1997175490391233,0.17100963699970478,30.351783011337876,76.36452869496094,1.5
16.2,0.2361861505893098,0.38830323627816477,1.5122882280100067,0.12964330394723128,-0.09100431313780658,-0.004448850677082242,30.35178281585569,76.36452878184191,1.5
16.3,-0.3518442290403594,-1.7041252935873754,2.951668750710233,-0.2287423837125696,-0.23044103602646115,-0.4652207371019878,30.351782620373505,76.36452886872289,1.5
16.400000000000002,0.48115993761636033,-0.3327488058955811,-1.3223634736724834,-0.1676620377503792,0.17616452558967438,-0.32027544006332026,30.35178242489132,76.36452895560386,1.5
16.5,0.646549913054642,0.10445800904764739,-2.280300635636029,0.08865281305831405,0.06395896526100514,0.021403271807198115,30.35178222940913,76.36452904248483,1.5
16.6,0.14015528520237264,0.6578956372071066,-0.4640041959579181,0.03210518641736371,-0.01841613290732221,-0.023750004496104316,30.35178203392695,76.3645291293658,1.5
16.7,-0.30002690404977783,1.0489160753721707,1.1925295444139525,0.06105008792941703,0.09538503501824949,0.006954985231012775,30.35178183844476,76.36452921624677,1.5
16.8,0.3289984189298294,-0.06126195086660715,2.1031738587106705,0.06195031779171645,0.21133610836664424,0.22632665151111123,30.351781642962575,76.36452930312774,1.5
16.900000000000002,1.0512020360413064,-0.27017866856240746,-0.03101108651347384,-0.15834941327636942,0.6316672902701901,0.41159408040879586,30.351781447480388,76.36452939000871,1.5
17.0,0.21231981071462414,-0.44216420867518713,-1.7582941905906038,0.22025866271250144,-0.31024162243973336,0.24735870629356826,30.351781251998204,76.36452947688969,1.5
17.1,-0.0631251585902643,-0.12152118145985345,-1.323058717291885,0.3392700349891795,-0.13707932218409113,0.23456467417179805,30.351781056516018,76.36452956377066,1.5
17.2,0.269846024247255,-0.01733515341952209,1.0383430964999283,0.1003393810124569,-0.2153182271403087,-0.005381711895063444,30.35178086103383,76.36452965065163,1.5
17.3,1.27941460581373,-0.050727314492765824,2.329999945156172,0.12018589158528503,0.24812430529391744,-0.19746969078887677,30.351780665551647,76.3645297375326,1.5
17.400000000000002,0.5912042046858601,-0.663430715164552,-0.019891079991373406,-0.4750891009852567,0.12035274580655553,-0.7206491888576048,30.35178047006946,76.36452982441357,1.5
17.5,0.3804349935012812,-0.19958359028741574,-2.0062051507445453,0.07328798692900859,-0.1096644477238974,-0.2712167963882595,30.351780274587274,76.36452991129454,1.5
17.6,0.6696089428107052,0.37130940980490657,-1.0583650072944182,0.11473257555337496,-0.10575029471341585,-0.22187996680960365,30.35178007910509,76.36452999817551,1.5
17.7,-0.08642131430317912,0.7129524474833127,1.896588279666298,-0.04657968849085597,-0.05409819812261901,-0.12502059975176655,30.351779883622903,76.36453008505649,1.5
17.8,0.2530661974049918,0.21788637532625266,1.6618296807771828,-0.050184456127714994,0.3663258879259553,0.2315179258584976,30.351779688140716,76.36453017193746,1.5
17.900000000000002,-0.07137420498110147,0.1495672897745468,0.20107791104258688,-0.47660878454594374,0.03988179428139538,0.11254522652764178,30.35177949265853,76.36453025881843,1.5
18.0,0.13111035994535697,-0.9022095314806315,-1.6695847869802523,0.3918565099725427,-0.03444536192519815,0.3952313416608467,30.351779297176346,76.36453034569941,1.5
18.1,-0.21379668093078635,-0.6079994547741635,-2.1636877086025885,0.2719682320547833,-0.08880487031322384,0.2185347132338654,30.35177910169416,76.36453043258037,1.5
18.2,-0.10889160202135441,0.06599636468319658,0.2132020369889127,0.10951154194053442,-0.2278408469469555,0.1349093652381574,30.351778906211972,76.36453051946134,1.5
18.3,0.8003081318334044,0.20298469970438132,1.369962523144608,0.01088708071835559,-0.18682580324723447,-0.12997082018195752,30.35177871072979,76.36453060634231,1.5
18.400000000000002,0.1181755899345226,-0.7553482834574162,1.828273219836696,-0.4177970593217551,-0.12108730640862285,-0.4476503082969052,30.351778515247602,76.36453069322329,1.5
18.5,0.33600672032319234,-0.2973962214713503,-1.327095557255974,-0.09584818910130444,0.005383545171833953,-0.13221899359012113,30.351778319765415,76.36453078010426,1.5
18.6,0.572638605451011,0.4094240854733183,-2.2553012294372774,0.14642454197768182,0.008288546169551242,-0.0486855323803136,30.351778124283232,76.36453086698523,1.5
18.7,-0.020647662999924238,0.7942448841091115,-0.286473220463213,-0.08096826774749341,0.00546669742418545,-0.17811705756178503,30.351777928801045,76.36453095386621,1.5
18.8,-1.2786753824467827,0.9079699932010115,2.3024487228288493,-0.18616596375908323,-0.0812333702523706,0.02920764508786272,30.35177773331886,76.36453104074717,1.5
18.900000000000002,-0.8514529350487592,-0.5582721869318321,1.7183657811283952,-0.09932898118618863,-0.17980723840474433,0.26606932910986164,30.351777537836675,76.36453112762814,1.5
19.0,0.6054830400325246,-0.7628789067570716,-0.5185540937751942,-0.008450610453221208,0.3584688635685677,0.40721222044923805,30.351777342354488,76.36453121450911,1.5
19.1,0.03740449110214222,-0.9556757277054437,-1.544880170075716,-0.19237512402406237,0.20741903410582968,0.2981462082891684,30.3517771468723,76.36453130139009,1.5
19.200000000000003,-0.288313897219433,-0.3470275136964686,-0.7331519358944147,0.23427471271369893,-0.07518800146987797,0.3025581833363725,30.351776951390114,76.36453138827106,1.5
19.3,0.41333232818583615,0.10004239028677395,0.7929247605864036,0.13613939752814996,-0.2266176521352921,0.1312206143987053,30.35177675590793,76.36453147515203,1.5
19.400000000000002,1.0886575676316088,-0.326894822902131,3.9197370041832293,-0.1224878834853631,0.3164008181432303,-0.06541780317221504,30.351776560425744,76.364531562033,1.5
19.5,0.5483446524930793,-0.5059538435889046,0.23244739204272546,-0.3603097669178337,0.0905259446906268,-0.5212156852644185,30.351776364943557,76.36453164891397,1.5
19.6,0.9307866147018046,-0.4620896188355253,-2.5110724212554096,0.3203650055007581,0.09544868563944096,-0.1544444332447761,30.351776169461374,76.36453173579494,1.5
19.700000000000003,0.7214760585723863,-0.0031844259437147082,-1.8378231586184481,0.18266147903904922,0.02201873644101819,-0.20402510562423143,30.351775973979187,76.36453182267591,1.5
19.8,0.09998695604632757,0.9066846678263412,0.7020897948330636,-0.19904818517264744,-0.07745307900955258,-0.14401194097739398,30.351775778497,76.36453190955689,1.5
19.900000000000002,-0.48346701372160983,1.0575687278440704,1.480080675673498,-0.11249179887301011,-0.0026934224914287874,0.15907317083189695,30.351775583014817,76.36453199643786,1.5
20.0,-2.2271038913252617,-0.6708496464156368,1.779713963313879,-0.6180594524323966,-0.037077343146874345,-0.22446835186299358,30.35177538753263,76.36453208331884,1.5
20.1,-0.17166095082829966,-0.4935485236589231,-0.8575427153285691,0.17365976787749768,-0.11135968129370227,0.611790877740801,30.351775192050443,76.3645321701998,1.5
20.200000000000003,-0.28978191664695485,-0.42853770322053875,-1.8618564675677227,-0.003780239985419695,0.07941267227146862,0.567203148266374,30.351774996568256,76.36453225708077,1.5
20.3,-0.45757588178658504,0.5234117293850985,-0.5100064104960392,0.2589089428121447,-0.06607630026702291,0.48564864462504526,30.351774801086073,76.36453234396174,1.5
20.400000000000002,0.7553964663969,0.1376774424293878,2.169675913991804,0.14619429302477988,-0.1633647331495889,0.1337017179312377,30.351774605603886,76.36453243084271,1.5
20.5,0.46683654132526897,-0.8013020537063126,1.8355585917647295,0.09096868875359165,0.1571971585361247,-0.4489240047184557,30.3517744101217,76.36453251772369,1.5
20.6,-0.3526434800706521,-0.8668163874823935,-0.6676887014606181,-0.06920742886044798,0.360703470151429,-0.230136853282248,30.351774214639516,76.36453260460466,1.5
20.700000000000003,-0.5913200078163593,-0.7317634682660049,-1.942416353758122,-0.09010607860044635,-0.1026348448833192,0.07263868756297848,30.35177401915733,76.36453269148564,1.5
20.8,-0.7907942359412652,0.0980359248546715,-1.1478680266909767,0.0613663339100443,0.05891269117409842,0.16157154473702484,30.351773823675142,76.3645327783666,1.5
20.900000000000002,-1.5680097732942957,0.5882753002607845,0.9393158395074207,-0.14476602620340248,0.0763870026814625,0.307410636484486,30.35177362819296,76.36453286524757,1.5
21.0,-1.7630599318338374,-0.8390387574145952,3.0503909167564514,0.13719442186501932,0.40749080333351867,1.1718648184183706,30.35177343271077,76.36453295212854,1.5
21.1,-1.8498459826056053,-1.3234031504070642,1.6782080807390969,-0.35537777606189025,0.19115789707610012,1.3567833112481567,30.351773237228585,76.36453303900952,1.5
21.200000000000003,-0.6299416584951574,-1.8635381943618987,-1.1796289870110417,0.29774249030307487,0.4179270157458986,1.5873437813909659,30.3517730417464,76.36453312589049,1.5
21.3,-0.5889434778773055,-1.2726817529676937,-0.8480570248398256,0.28175222101610886,0.5548821959360658,1.4623583584783244,30.351772846264215,76.36453321277146,1.5
21.400000000000002,-1.0140295423993182,-0.5454724693899706,0.5923716628081297,0.17134165011442418,0.16715177386733668,1.1047679126830068,30.351772650782028,76.36453329965244,1.5
21.5,0.8690767232920389,-0.1913632379981521,2.1007476084986925,-0.06971444264323409,0.24144377101565348,0.5176509124064548,30.35177245529984,76.3645333865334,1.5
21.6,-0.5899875749660788,-0.9280006265843208,1.1323038824591818,-0.4504037860018565,0.7365590738458184,0.08433427158238727,30.351772259817658,76.36453347341437,1.5
21.700000000000003,-0.2610507470344522,-0.6514858590287178,-1.6179913505139312,0.01730202851624084,0.42860763065364577,0.6415929486804886,30.35177206433547,76.36453356029534,1.5
21.8,-0.30732599766985264,-0.07725069811322574,-1.9545142110891423,0.1319578355602975,0.3179733033438393,0.7920567641879841,30.351771868853284,76.36453364717632,1.5
21.900000000000002,-0.4851963858683026,0.30758692250746755,0.20884989572389434,0.0133799130317339,0.26828265095381587,0.7313940852976493,30.3517716733711,76.36453373405729,1.5
22.0,-0.9042238899428265,0.30806684028608966,1.7046607222492967,0.05384659406445577,0.48230368794028006,0.7079414447541381,30.351771477888914,76.36453382093826,1.5
22.1,-1.5498188716839705,-0.9609576333541513,1.9237199962339535,-0.1170698550431691,0.46616231410069264,0.9207130409565867,30.35177129461619,76.36453390233298,1.5
22.200000000000003,-0.8073126265181121,-1.5587622976389308,-0.9795920257670273,0.048395994827834236,0.12642464696903016,1.26153183573691,30.351771234795653,76.36453392825521,1.5
22.3,-1.469908794220653,-1.1870413735998555,-1.9857712297715588,-0.07921552113009704,0.18555874394474048,0.8581382447805552,30.351771174975113,76.36453395417745,1.5
22.400000000000002,-0.30049279611042495,-0.6656146771770755,0.13613241584697827,0.05530374485456101,-0.032118190540590716,0.8277133820979251,30.351771115154577,76.36453398009968,1.5
22.5,0.4968941630706357,-0.348015261166711,1.4672683971624614,0.06467669989014813,-0.1175403291558352,0.5004909485338815,30.351771055334037,76.36453400602191,1.5
22.6,0.9853989893161232,-1.4622457585251554,1.168853857423497,-0.27013907138700977,0.06427643675516513,-0.07447827747798458,30.3517709955135,76.36453403194415,1.5
22.700000000000003,-0.16128830730822594,-0.3134353008441302,0.84050456045514,-0.7140309054518157,0.2230228685412109,-0.693582781481012,30.351770935692965,76.36453405786638,1.5
22.8,0.33109417911446243,0.25984543626879475,-2.1983242141266492,0.07024176243285296,0.16385438691344514,-0.18392441507401175,30.351770875872425,76.36453408378861,1.5
22.900000000000002,0.7373780090972439,0.45902822838413615,-1.1983136940798111,0.34305487273165874,0.02863107386412201,0.0406031751326587,30.35177081605189,76.36453410971085,1.5
23.0,-0.29260157461463504,0.6585436255666222,1.6205733260993747,0.3026001996764077,-0.44609880418174136,-0.005442168771258988,30.35177075623135,76.36453413563308,1.5
23.1,0.47051326132231963,0.2197371738967208,2.5701743481391883,0.031504306356017975,0.007065332701141472,0.3999682413277088,30.351770696410814,76.36453416155531,1.5
23.200000000000003,0.07690521039891185,-0.33436938262641774,-0.3897199924994198,-0.16690348279763134,0.3385473818810109,0.48367739386019126,30.351770636590274,76.36453418747755,1.5
23.3,-0.20468879368889376,-0.8363326200131167,-1.1827609919897517,-0.18520234908074912,0.6430941317798176,0.4779814429639293,30.351770576769738,76.36453421339978,1.5
23.400000000000002,-0.011951401612642255,-0.12147909956101254,-2.063829401968947,0.19343219678305784,0.01709831383864345,0.49383851591688877,30.351770516949202,76.36453423932201,1.5
23.5,-0.4082223537330999,-0.2528708135974517,1.264003291129576,0.34464091684768944,-0.0954289878522604,0.11899665772702811,30.351770457128662,76.36453426524425,1.5
23.6,0.732848848703341,-0.21124388672038788,2.494147788321178,0.2751263153431506,-0.009951514964248759,-0.024566274036295785,30.351770397308126,76.36453429116648,1.5
23.700000000000003,-0.2948435773834256,-1.1181514088305389,0.8608408159089553,-0.4182133692540114,0.07965940258589832,-0.6811025481794641,30.351770337487586,76.36453431708871,1.5
23.8,0.8927275379185202,-0.3336648038779237,-2.09064394843984,0.2069115382432067,-0.033545368959512045,-0.05662177644546751,30.35177027766705,76.36453434301094,1.5
23.900000000000002,0.9096696186009128,0.1407299535224632,-1.9907221820958259,-0.12827532995076052,0.10087860720719106,-0.22012002112658477,30.35177021784651,76.36453436893318,1.5
24.0,0.37471177435817626,0.5382477772997248,-0.6815447361466613,0.2887314538519095,0.055802462013169296,-0.03794499040389239,30.351770158025975,76.36453439485541,1.5
24.1,-0.9418521076512899,0.7650625463905418,3.2977231915335565,-0.5172261252617486,0.3659282793241179,0.04449567145712676,30.35177009820544,76.36453442077764,1.5
24.200000000000003,-0.48765319852514344,-0.48259240800931646,0.33038045241173924,-0.23659972545782387,0.4149170190094367,0.5065636003680122,30.3517700383849,76.36453444669988,1.5
24.3,0.45565398818301495,-0.8755652802595314,-1.3062906982039209,0.060976544952675335,-0.1862021754807116,0.24326415352988762,30.351769978564363,76.36453447262211,1.5
24.400000000000002,0.1420202181063438,-0.6941959609859738,-1.5524685803696805,-0.034867521435954285,0.06462270126369127,0.0010777171496961432,30.351769918743823,76.36453449854434,1.5
24.5,0.14735927476317814,-0.07478731731883854,0.14427298074508058,0.30538597217809577,-0.29934544548797554,0.1288130840730132,30.351769858923287,76.36453452446658,1.5
24.6,0.14795757536133292,-0.5069766392687248,1.808992786884537,0.08449677516877928,-0.3750589051730345,-0.09824258188196784,30.351769799102748,76.36453455038881,1.5
24.700000000000003,0.6321894633182864,-0.7988952349460825,2.033518250115422,-0.10076395710838958,0.06451837730710619,-0.3110502322811884,30.35176973928221,76.36453457631104,1.5
24.8,0.5789648163140325,-0.5254079746764221,-1.1751359068198426,-0.3313009958147567,0.2857688992122415,-0.6996324744425295,30.351769679461675,76.36453460223328,1.5
24.900000000000002,0.8067002063272966,0.13169266389527423,-2.5756521086971373,0.24560610221568613,0.024333581059233847,-0.1613983450239847,30.351769619641136,76.36453462815551,1.5
25.0,0.6861884307410531,0.49088196806859347,-0.19600495497120485,-0.05734821139642129,-0.03321593157215665,-0.34420776244160395,30.3517695598206,76.36453465407774,1.5
25.1,-0.2701684469288663,0.24647562675516074,2.5762640985247023,-0.0204584232177056,-0.13928734680220348,-0.181640490046404,30.35176950000006,76.36453467999998,1.5
25.200000000000003,-0.33670183405627335,-0.8528706331824847,2.432112641057559,0.1854490862257965,0.3495533662237557,0.5907709513104819,30.351769440179524,76.36453470592221,1.5
25.3,0.025984026257843462,-0.2008646015136918,0.06728750283291052,-0.26579942216210306,-0.1488613229905147,0.4725763876149105,30.351769380358984,76.36453473184444,1.5
25.400000000000002,0.14950276565978735,-0.7946341529282418,-2.510775432669874,0.37797527555310934,0.08783300865951307,0.36272122578163063,30.35176932053845,76.36453475776668,1.5
25.5,-0.09207386342498797,0.36480014118569315,-0.863090160978581,0.37894412471115235,0.10804801866817315,0.2794041151421535,30.351769260717912,76.36453478368891,1.5
25.6,0.7777105028897412,-0.1591490466290533,1.61495186178048,0.3335976878434725,-0.6173333736215196,0.20081287364470918,30.351769200897373,76.36453480961114,1.5
25.700000000000003,1.088375279270419,-0.6866636126504865,0.8057691877682572,0.3642252718694975,-0.27338257197358795,-0.16929693859900394,30.351769141076836,76.36453483553338,1.5
25.8,-0.21270695589703137,-0.7578727026463856,1.131010282512782,-0.7032274854346484,0.3798151081446608,-0.9934903403099794,30.351769081256297,76.36453486145561,1.5
25.900000000000002,0.7785593903470542,-0.456158079583886,-1.5993311154887009,0.10994263878953094,-0.1414658808940925,-0.4013320289376392,30.35176902143576,76.36453488737784,1.5
26.0,0.7272192387269036,0.025204910730343765,-2.7435844879997897,0.3393331055687998,0.1474233279612445,-0.10248836448856433,30.35176896161522,76.36453491330008,1.5
26.1,0.06436542426975239,0.2628867624490472,0.6656940435916978,-0.0011846472166151117,0.10518874431701208,-0.07043638764304472,30.351768901794685,76.36453493922231,1.5
26.200000000000003,-0.20595851424431466,0.24227871325974432,2.496163279272082,-0.06717531727446556,0.23512728885503326,0.048082174436616235,30.351768841974145,76.36453496514454,1.5
26.3,-1.2327913022436165,-0.4556838629292362,0.7574677654698568,-0.8022817435490291,-0.4647353723595634,0.04796177921726054,30.35176878215361,76.36453499106678,1.5
26.400000000000002,0.21744266323747863,-0.5971405215889802,-1.7019183228791346,-0.15396567255215815,-0.17872751210552684,0.3682818079613713,30.351768722333073,76.36453501698901,1.5
26.5,0.12057430638085076,-0.4527498564360229,-1.0608499540298788,0.09461007354450122,0.07769977554084656,0.15148084587037866,30.351768662512534,76.36453504291124,1.5
26.6,-0.06735966374074669,0.10940286625582656,1.1806185026501645,0.30066175644613813,-0.40732314753421517,0.0575367423265691,30.351768602691998,76.36453506883348,1.5
26.700000000000003,1.9791070996545472,0.1492367513475939,0.37321586867192313,0.24791406670905677,0.04308385044962165,-0.1702844234152187,30.351768542871458,76.36453509475571,1.5
26.8,-0.12757912311518116,-0.8089869177951315,1.293788505569377,-0.4796594043800967,0.132010497299981,-0.48993216625316494,30.351768483050922,76.36453512067794,1.5
26.900000000000002,1.3161563607677285,-0.13294910713911012,-1.471601370705016,-0.21962087649178938,-0.062497543517068044,-0.08078227330058557,30.351768423230382,76.36453514660018,1.5
27.0,0.6645685301747244,0.21299756653974516,-2.455450401759415,0.09373360602223704,-0.11759428654993713,-0.17500410899713031,30.351768363409846,76.36453517252241,1.5
27.1,0.5914062473233204,0.5443132295765811,0.4106430512336705,0.21206970626477833,-0.019463504231923487,-0.09089885993678537,30.35176830358931,76.36453519844464,1.5
27.200000000000003,-0.3086872611108573,0.6559416256473887,1.9969768809445436,-0.1643756654547589,-0.31897526280839894,-0.10289307293107541,30.35176825044911,76.36453522385784,1.5
27.3,-1.222651852703621,-0.7057927063548843,1.475852337715538,0.1997246710156029,0.5411526944161743,0.5334350192858558,30.351768197735325,76.36453524923856,1.5
27.400000000000002,0.7959130695906158,-0.20988138463595346,-1.2053846212979626,-0.14523710689093738,0.026165533150160125,0.5477917791708182,30.351768145021538,76.36453527461927,1.5
27.5,-0.1527157024760174,-0.24758374582201148,-2.025814814484206,0.3683626556294891,-0.007457630335098359,0.443924523972382,30.351768092307754,76.36453529999997,1.5
27.6,-0.07416377988944489,-0.11032511044200422,0.11906094843899148,0.3924117233821236,-0.08856939568054403,0.2151641757885304,30.35176803959397,76.36453532538069,1.5
27.700000000000003,1.1323443535608744,-0.22656244138694415,1.548653125121388,0.14282297331857774,-0.20298966082723827,0.004620405956862746,30.351767986880184,76.3645353507614,1.5
27.8,0.6769164965859207,-0.778726234060128,0.9363307822574563,-0.3495105860909163,-0.1020585932428055,-0.3979645219436437,30.3517679341664,76.36453537614211,1.5
27.900000000000002,1.1465450812402067,-0.5897334836514304,-0.6987626543299498,-0.06861190537155135,-0.07104788580137317,-0.26488191707003117,30.351767881452613,76.36453540152282,1.5
28.0,0.038517865819817976,0.1172977479640206,-2.0314883505159727,-0.2158300873935527,0.10891629786307325,-0.45650165866077874,30.35176782873883,76.36453542690353,1.5
28.1,0.620598168479295,0.8407744675818981,-0.002472366496207412,0.11883440443065901,0.00706458166862739,-0.18772334988089467,30.351767776025046,76.36453545228424,1.5
28.200000000000003,-1.517876688109308,0.9698656162800883,1.8467599693198251,0.17941598174472245,-0.15785043668161727,-0.15077296939317514,30.35176772331126,76.36453547766496,1.5
28.3,-1.1327367740879666,-0.5660231779597791,2.14035259382585,-0.15456797607668243,0.08565458922898164,0.3772984688763446,30.351767670597475,76.36453550304566,1.5
28.400000000000002,0.6806169074184415,-0.6157082959519843,-0.9385684662162277,0.028097335290842573,0.22069722495866007,0.6359202189556243,30.351767617883688,76.36453552842637,1.5
28.5,0.9176171846839274,-0.6088713969670286,-2.2708754727229086,0.3062116537711176,0.38997919658609187,0.3890277581460681,30.351767565169904,76.36453555380709,1.5
28.6,1.3302864854357854,-0.11993480377022145,-0.16985347662668193,0.3235939468027486,-0.0875816840776463,0.2542013546020101,30.35176751245612,76.3645355791878,1.5
28.700000000000003,1.0073237560113337,-0.16007481648880864,1.2189068899655273,0.11752784316889725,-0.40297942919559027,-0.12318768907480007,30.351767459742334,76.36453560456852,1.5
28.8,-0.4836663485483041,-1.3342126463941746,3.2426110763581413,-0.30887329003731623,-0.03330920319088757,-0.5374337818476853,30.35176740702855,76.36453562994922,1.5
28.900000000000002,0.6999072908412374,-0.34882725424566363,-1.2713263245651194,-0.4560689076966786,0.34240318101223394,-0.3829934192824509,30.351767354314763,76.36453565532993,1.5
29.0,0.9394264818431785,-0.4017668850742381,-2.0328738597151803,-0.0673792905973387,-0.11546860184225756,-0.05627613941901493,30.35176730160098,76.36453568071065,1.5
29.1,0.08379667803518227,0.629716525960898,-0.477571634402286,0.0732462643328018,-0.13437372361977937,0.05603265623497308,30.351767248887196,76.36453570609136,1.5
29.200000000000003,-0.9747318738870713,0.9013237979995274,2.020285619599571,0.034267482592520465,-0.1949349250353205,0.11716187415206122,30.35176719617341,76.36453573147206,1.5
29.3,0.16864020094349874,-0.07936201404039678,0.9478911618410492,0.055562074164805346,0.3353923608281775,0.4243042874815746,30.351767143459625,76.36453575685277,1.5
29.400000000000002,0.6189099848040729,-0.819337381994361,-0.3446912475332282,-0.24700127384523154,0.6752361774529868,0.4700393602449269,30.351767090745838,76.36453578223349,1.5
29.5,0.24774912117786685,-0.7176524780985825,-1.2760878470628108,-0.07406339746194755,0.09879541917664601,0.24818755325112235,30.351767038032055,76.3645358076142,1.5
29.6,0.5046273339805312,-0.10788346727443149,-0.6587042973807344,0.5131141947130169,-0.07002994863972958,0.3757771083919635,30.35176698531827,76.3645358329949,1.5
29.700000000000003,0.15019287645738422,0.48043298994327005,1.3952059528945968,0.20786380822558903,-0.506587356895464,0.1347127950276316,30.351766932604484,76.36453585837562,1.5
29.8,-0.3603083141072016,-0.42532143112858867,2.412793509887791,-0.3695644687604241,-0.038959926073486244,-0.5123364499139944,30.3517668798907,76.36453588375633,1.5
29.900000000000002,0.9148309364468232,-1.1145835088883673,-2.0481246435402385,-0.15798810602184088,0.445224107295319,-0.5204650508436609,30.351766827176913,76.36453590913705,1.5
30.0,0.7592058110163203,-0.3887217723536027,-1.4494518882526992,-0.22999553181569732,0.0943488204010579,-0.38254763312830053,30.35176677446313,76.36453593451776,1.5
30.1,0.4558904690296993,1.126543676866883,-1.1964833585573307,-0.045362274901599074,0.17385653910992652,-0.17276758228711694,30.351766721749346,76.36453595989846,1.5
30.200000000000003,-1.1661843716700508,0.8697944352503251,2.5950792988235696,-0.20740252292493871,0.07578976860609006,0.07664061330457672,30.35176666903556,76.36453598527918,1.5
30.3,-0.06643471267174883,-0.39609261009303864,1.4670185530767088,0.18416739963555917,0.1259268298503904,0.5090779531394323,30.351766616321775,76.36453601065989,1.5
30.400000000000002,0.5703258193732512,0.17222195628914166,-0.4530003840903922,-0.11528942077920497,0.23547064638370968,0.3513937908311152,30.35176656360799,76.3645360360406,1.5
30.5,-0.44691801733455927,-1.0835393232625172,-1.9711242975665573,0.2352590994104325,0.16497077648206904,0.37231954227525876,30.351766510894205,76.3645360614213,1.5
30.6,-0.15380741098313774,-0.20389623315182087,-1.5760284090081789,-0.0027298142931638236,0.0464774341896492,0.23532732727553538,30.35176645818042,76.36453608680202,1.5
30.700000000000003,0.14458778042216314,-0.17928342735830088,2.3460402822382544,-0.09779569966367321,-0.36550739711195934,-0.011666045940941594,30.351766405466634,76.36453611218273,1.5
30.8,-0.14555741384467313,-0.9272729962517471,2.770321853735271,-0.010457237042395762,-0.05283732810825381,-0.07176421068664586,30.35176635275285,76.36453613756345,1.5
30.900000000000002,-0.08020519968437734,-0.9039682865661363,-0.7144402356263658,-0.4604519343424202,0.22970779424490523,-0.7536736102298013,30.351766300039063,76.36453616294416,1.5
31.0,0.47183066753773284,0.14218495368822884,-1.3795310651629114,0.07751328881160012,-0.0653795888971626,-0.17889564608136613,30.35176624732528,76.36453618832486,1.5
31.1,0.8468518966281758,1.0115109664892319,-0.7294828753270333,0.11515064828292115,0.08751691944987178,0.027426714084703707,30.351766194611496,76.36453621370558,1.5
31.200000000000003,-0.28554392184286376,0.7434410567565006,2.6475419214463254,0.10021728051046419,-0.170831662374771,-0.06346909769943873,30.35176614189771,76.36453623908629,1.5
31.3,-0.29668020116021127,-0.1161927962505007,1.6150616100969897,0.07456139765314024,-0.23608291597814388,0.1774782929341794,30.351766089183926,76.364536264467,1.5
31.400000000000002,-0.01118576099082147,-0.20802585665211404,-1.3110744932514047,0.15264620048992905,0.47572922539721874,0.7182500922394488,30.35176603647014,76.3645362898477,1.5
31.5,0.24961658635071593,-0.9238229473126588,-2.1204010322771776,0.1459907260935705,-0.04147519420071605,0.5509888485269441,30.351765983756355,76.36453631522842,1.5
31.6,-0.23845741564550924,0.009092844599722679,-1.3863728781702391,0.1589087954653022,0.018287012476397385,0.20893772912341368,30.35176593104257,76.36453634060913,1.5
31.700000000000003,-0.05643200266295051,-0.11242186839507767,2.2003039544190237,0.143228364752134,-0.07880901625411363,-0.06261176245483355,30.351765878328784,76.36453636598985,1.5
31.8,0.34616724135791155,-0.48460354203851846,2.3297651932050636,-0.5251741132929841,0.3392617567050672,-0.1463097965178254,30.351765825615,76.36453639137055,1.5
31.900000000000002,0.4185915970860471,-0.7414489678570166,0.18057738710254345,0.12662875652579636,-0.16008448790056407,-0.7565695788187871,30.351765772901214,76.36453641675126,1.5
32.0,0.7860078466069047,-0.09912496099061796,-2.0061174185404935,0.13679141043842666,-0.16137063413127173,-0.42987959398649767,30.35176572018743,76.36453644213198,1.5
32.1,0.3543545862774468,0.6629501836431508,-0.647432816730846,0.014341318769667818,-0.14363882282088442,-0.12585805278127832,30.351765667473646,76.36453646751269,1.5
32.2,-0.14050223896937164,0.6086392944257707,0.5638025982324286,0.30470944432204067,-0.32109698605267717,0.042221728899790284,30.35176561475986,76.36453649289341,1.5
32.300000000000004,1.5604004680370167,-0.3460940832274574,0.07937459060890273,0.2646403216819925,-0.2655196931158412,0.1493191079171655,30.351766994581087,76.36453736135891,1.5
32.4,-0.1371712794351645,-0.7014134990786923,0.7159976964119273,0.03867961947435006,0.12623189922108002,0.21441072358292373,30.351768931499265,76.36453855769072,1.5
32.5,0.606639456964434,-0.8390406562417563,-1.3645337652083622,-0.16850194282052605,0.005164487622343283,0.27692392965205165,30.351770868417443,76.36453975402254,1.5
32.6,-0.14007618574499114,-0.34948953445667963,-0.3843045078265712,0.15406154896051835,-0.13080151312874122,0.15015170614993625,30.35177280533562,76.36454095035435,1.5
32.7,-0.4170367518746589,0.19817699586646104,0.8617234761590535,0.0541614364559686,-0.12969253607090342,0.026269036028195566,30.3517747422538,76.36454214668618,1.5
32.800000000000004,0.4848631087195995,0.09618926678097228,1.0117246379330695,0.19518285785790102,0.02678854718794675,-0.17799805701655452,30.351776679171977,76.36454334301798,1.5
32.9,-0.2502583207429306,-0.7731252704931318,1.003449058597183,-0.40702461530259787,0.20345076336574403,-0.682904207784666,30.351778616090154,76.3645445393498,1.5
33.0,0.864805375116209,-0.10175377788681841,-1.748133083666085,0.0815301244499782,-0.09133403759918202,-0.1324680449571718,30.351780553008332,76.36454573568162,1.5
33.1,0.3154533525370957,0.15948400605705357,-2.069707510923243,0.1713505045022762,0.000885296581687782,-0.09583822777694709,30.35178248992651,76.36454693201343,1.5
33.2,0.3260459264321961,0.5126708006191266,0.23712099782385687,0.1526078094407726,-0.05048057758980792,-0.05675833312944206,30.351784426844684,76.36454812834525,1.5
33.300000000000004,0.8412820174256965,0.7671351901476603,0.9488028861568794,0.06706366684133046,0.08777936751020951,0.18510107943143117,30.351786363762862,76.36454932467706,1.5
33.4,-0.9888730731927848,-0.47486397880586584,1.2622559878589144,-0.37895909414840817,0.38960565639257855,0.08614790885904294,30.35178830068104,76.36455052100888,1.5
33.5,0.6069710605244664,-0.4702725152976672,-0.8858287599116332,0.04988439176492333,-0.03069818057658116,0.4427976052079726,30.351790237599218,76.36455171734069,1.5
33.6,-0.5295685656794836,0.08290513054064438,-1.9167481147424852,-0.21304925419753581,-0.0998926560694573,0.11700960464076915,30.351792174517396,76.36455291367251,1.5
33.7,-0.026919702640368526,0.18560020386859158,-0.39569979355898405,0.30678993350575934,-0.12344260064625973,0.10663781643653547,30.351794111435574,76.36455411000432,1.5
33.800000000000004,0.2848811196036059,0.294974631529361,1.7193738269275514,0.3388040004612082,0.014087912602819705,-0.018946961927453067,30.35179604835375,76.36455530633614,1.5
33.9,-1.0007572973297263,-1.1872619598517407,2.3159149337707143,-0.5194322889937819,-0.5025994406244213,-0.6483725006236313,30.35179798527193,76.36455650266795,1.5
34.0,1.3206448736184553,0.02512444427232005,-1.00224026034363,-0.03895709892119137,-0.02103848247610196,-0.3845268798175265,30.351799922190107,76.36455769899977,1.5
34.1,0.31848929510445806,-0.23819167206368919,-1.2743924121559265,0.14810835747044335,-0.1390910521922617,-0.4074062036561,30.351801859108285,76.36455889533158,1.5
34.2,0.20522547631877963,0.3190527886237053,-0.7285272991082783,0.3614898693282794,0.10303356125165561,-0.36977275596373893,30.351803796026463,76.3645600916634,1.5
34.300000000000004,-0.78200369334494,0.30917220307271787,0.20754964707832405,0.21601282039478606,0.11966218892624242,-0.035829689935355985,30.35180573294464,76.36456128799522,1.5
34.4,-0.5625123535932032,-0.343320985367773,0.9604315700163557,0.10052189158075794,0.5319640743404165,0.40795165120979865,30.351807669862815,76.36456248432704,1.5
34.5,-0.2393020695291525,-0.7496666082960475,0.5337511343636289,-0.378636115199491,0.003782165824636613,0.29173897542852373,30.351809606780993,76.36456368065885,1.5
34.6,-0.033085972028551125,-0.4967516144055724,-1.2790535577784343,-0.1763646437386821,0.11623384444820639,0.2846188477237445,30.35181154369917,76.36456487699067,1.5
34.7,-0.26737172299169487,-0.1266871838606521,-0.6530191749495824,0.1488308271634679,-0.032450259263344994,0.29008554199148373,30.35181348061735,76.36456607332248,1.5
34.800000000000004,0.5119971244405929,0.020424360638897174,1.1709230484455606,0.08296228435488616,-0.07959066900325215,0.07775478729613698,30.351815417535526,76.3645672696543,1.5
34.9,1.8489804644970511,-0.04724185181439011,1.0342949145891782,0.19501712902525384,0.1715848160192629,0.09359921784107558,30.351817354453704,76.36456846598611,1.5
35.0,0.20038621068911966,-0.08220602208567951,0.6102702705564244,-0.6774250186667801,0.0032795716688480137,-0.5312702792788192,30.351819291371882,76.36456966231793,1.5
35.1,0.4464057801453291,0.41012163456011885,-1.44152963803246,-0.009323040046624577,-0.15229753358001422,-0.13198137235273769,30.35182122829006,76.36457085864974,1.5
35.2,0.031844251136386906,0.20661985444556677,-1.1795092458830014,0.3343856774273667,0.10102342285752847,-0.22708503544754188,30.351823165208238,76.36457205498156,1.5
35.300000000000004,-0.6606261023723352,0.3877189879528228,1.0216158606695795,0.09496066918644015,0.08693137788037943,-0.18886887588488768,30.351825102126416,76.36457325131337,1.5
35.4,0.20218125836349776,0.2885229549490282,0.5646250119817564,-0.06838808092021129,0.17893992639247774,0.17584677479488126,30.351827039044593,76.3645744476452,1.5
35.5,-0.38254997794132733,0.8459062155591317,-0.0860080824602627,-0.6840039991219548,0.1601917969169786,0.09578182950349667,30.35182897596277,76.364575643977,1.5
35.6,0.44311997376210766,-0.1333594575880564,-0.916898572447533,-0.045526784344986956,0.006341467035445168,0.3556106493699865,30.351830912880946,76.36457684030883,1.5
35.7,-0.25338606525028573,0.28653339695380076,-1.8639694868503711,0.18276062936978382,-0.11631204887958581,0.25483644440274933,30.351832849799123,76.36457803664064,1.5
35.800000000000004,0.009348394673436511,0.21603548773177617,0.17257177154017816,0.13272092940927094,-0.3436414971887347,0.11182674442395421,30.3518347867173,76.36457923297246,1.5
35.9,0.08116685730694867,-0.12095613643603625,1.5648941955159819,0.17550207771369464,0.050478770446846566,-0.11500717915026643,30.35183672363548,76.36458042930427,1.5
36.0,-0.6991806390814275,-0.7284654542654148,1.3791311471102365,-0.667756695113039,0.02540179633622691,-0.7369096999106374,30.351838660553657,76.36458162563609,1.5
36.1,0.5348088032249666,0.06352216859281815,-1.293480344413732,0.22442906907043225,-0.22545621845537767,-0.052286226374440026,30.351840597471835,76.3645828219679,1.5
36.2,0.23684178970762015,0.37355634403816207,-1.8222472349292773,0.09128830843711569,0.0543484235435896,-0.14816792561896902,30.351842534390013,76.36458401829971,1.5
36.300000000000004,-0.3104513683553355,0.3296451596580765,-0.3058919124016435,0.18998727330051352,-0.1101153269740195,-0.07781813693535673,30.35184447130819,76.36458521463153,1.5
36.4,-0.1571435865887862,0.8863481849829455,1.1406308538136642,-0.10724046397041345,-0.0076471563742666615,0.1029111810224573,30.35184640822637,76.36458641096334,1.5
36.5,-0.6374250185769769,-0.4137923685462057,2.6278983018687514,-0.44565830003426093,0.17131053487618084,0.29952713015480126,30.351848345144546,76.36458760729516,1.5
36.6,0.6340408171721371,0.14106701994369109,-1.0758755935157551,-0.07791825593365131,-0.07469486524012522,0.3903382946814273,30.351850282062724,76.36458880362697,1.5
36.7,-0.0018408120259621602,0.08414354329835376,-1.6364537549085731,-0.14672294605283429,0.06296829374200956,0.049942659410644206,30.3518522189809,76.3645899999588,1.5
36.800000000000004,0.40269111895586995,0.4659227499786283,-0.16723506302540736,0.34694087197384493,-0.15361582448079666,0.15600767463441026,30.351854155899076,76.3645911962906,1.5
36.9,0.0799537977672738,0.3732875494950096,1.38169084266987,0.08100109603286491,-0.23610019053226794,-0.07649992616053315,30.351856092817254,76.36459239262243,1.5
37.0,0.5345888505399392,-0.37739077167821555,2.4486020489251894,0.09482134520677518,-0.1526566742764641,-0.38095199918266975,30.351858029735432,76.36459358895424,1.5
37.1,0.38679007968766266,0.010682377291653444,-0.9209409613812354,0.1808738630903538,0.3721520594830041,-0.5935803457777088,30.35185996665361,76.36459478528606,1.5
37.2,-0.02096512939658135,0.2843845006480508,-2.333923580613667,-0.16357152723872265,0.09994998989135048,-0.3122580243648444,30.351861903571788,76.36459598161787,1.5
37.300000000000004,0.18949269200121419,0.6441793055445617,-0.9047897643200296,0.11800646960168158,0.10228509272147292,-0.09060624461584123,30.351863840489965,76.36459717794969,1.5
37.4,-0.7922001879407023,0.10106792032488277,3.1746461288912413,-0.016406467353938574,-0.11465034306698288,-0.04812801187966744,30.351865777408143,76.3645983742815,1.5
37.5,-0.31590014414256534,-0.057051783973134484,1.847287413637971,0.18363210645345152,0.4752917444399776,0.42701456195325116,30.35186771432632,76.36459957061332,1.5
37.6,-0.7623267004036073,-0.2068092605330581,-0.3899853645297299,-0.2445869394669903,-0.06830354683983333,0.361387423939437,30.3518696512445,76.36460076694513,1.5
37.7,0.06509512878610924,-0.8549683048406163,-2.2166237055624993,0.15651924208255805,0.0014482565731988584,0.3472895702814599,30.351871588162677,76.36460196327695,1.5
37.800000000000004,-0.3044959316654401,-0.3975458685059953,-1.1751349400231703,0.0878029966079886,0.10518256117425673,0.29293074225802396,30.351873525080855,76.36460315960876,1.5
37.9,0.15010103146865927,0.21132737522507833,0.8750835909609069,0.06915563266966465,-0.3442477564246867,0.28139628870300754,30.35187546199903,76.36460435594059,1.5
38.0,0.774004127995472,0.3614185639399363,2.4945568562834097,0.01837502178768713,0.047368327779616914,-0.019997422360970296,30.351877398917207,76.3646055522724,1.5
38.1,0.4983048200608302,-0.8045422191951613,0.41608574648060737,-0.19070314806219507,0.07981845752585737,-0.6081474440222789,30.351879335835385,76.36460674860422,1.5
38.2,0.5036105383195213,-0.13560870123742058,-1.2320913796777493,-0.22700636916503542,-0.11017078977413367,-0.3545399908197362,30.351881272753563,76.36460794493603,1.5
38.300000000000004,-0.301981394237741,0.4773020453137219,-1.597695456655868,-0.020900450864807227,-0.11766300043126257,-0.38015940755047906,30.35188320967174,76.36460914126785,1.5
38.400000000000006,-1.005743399669742,0.6527056291833578,1.0087414732328912,0.005275218944109428,-0.2860699519619664,-0.16122445313763126,30.351885146589918,76.36461033759966,1.5
38.5,0.42884466695937995,0.9360679356279449,0.5438427524844462,0.14529825152637385,0.09738755177745162,0.20028468664895366,30.351887083508096,76.36461153393148,1.5
38.6,-1.5615680973940624,-0.18992753994568445,0.968272232697097,-0.06840169629492196,-0.024239875860101817,0.19500230628173015,30.351889020426274,76.36461273026329,1.5
38.7,0.08434879835946424,-0.4780301714277389,-1.041064918651042,0.12565230310968273,-0.08491294117205817,0.293221017819053,30.35189095734445,76.36461392659511,1.5
38.800000000000004,-0.4959618952134445,-0.28715748436600114,-1.565782173870447,0.04140039225198225,0.16213375881040362,0.1806620976365238,30.35189289426263,76.36461512292692,1.5
38.900000000000006,0.13919511581865912,0.06564548334184832,-0.0885610982805014,0.30296747849332273,-0.3633300817359677,0.2632567188958418,30.351894831180807,76.36461631925874,1.5
39.0,1.3031479825458145,0.02950828573738279,1.6544405215287559,0.09254874506282582,-0.11504035069921634,-0.052814293417866864,30.351896768098985,76.36461751559055,1.5
39.1,-0.31996150604242557,-1.2178140226910101,2.7156294142109014,-0.573386539726399,-0.5530451177435673,-0.7480432123503453,30.35189870501716,76.36461871192238,1.5
39.2,1.1254317308180808,-0.21455131507792494,-3.634192956433808,0.4457467721702576,-0.11923077588733083,-0.3177243277327153,30.351900641935337,76.36461990825418,1.5
39.300000000000004,0.3964257276737948,0.21145397972715518,-1.8708818939548675,-0.2635118481991639,0.1352350660418496,-0.3681682157634988,30.351902578853515,76.364621104586,1.5
39.400000000000006,0.03777937740006676,1.1214871518261882,0.198599663108168,0.0713204974994703,0.1904793997238976,-0.20178172258578353,30.351904515771693,76.36462230091782,1.5
39.5,-0.6746984442821402,1.2555066845191871,1.7452701421477301,-0.25767743197579346,0.018507158587872483,0.19592497963586708,30.35190549712286,76.36462293488816,1.5
39.6,-0.5251196568033047,-0.16011481595652144,1.035752734700389,0.187288362357123,0.010420149089569564,0.39961816301682934,30.35190615995278,76.36462338140532,1.5
39.7,0.7511760041740068,-0.08002462036522709,-0.5965841579756153,-0.021356922468381417,0.20229241163904843,0.44895065628159747,30.3519068227827,76.36462382792249,1.5
39.800000000000004,0.09867797885537222,-0.3999082995264065,-1.8325810663538682,0.07304760762669049,0.03197244865296378,0.22316892975344604,30.351907485612617,76.36462427443963,1.5
39.900000000000006,0.33310708764293706,-0.09760906135040617,0.13937537713053305,0.19405002704233185,-0.06685526349008507,0.15392111201106576,30.351908148442533,76.3646247209568,1.5
40.0,0.8725133232164463,0.25997032531964476,2.008114181548446,0.06329844841988758,-0.45118837585892235,0.0004389500073728042,30.35190881127245,76.36462516747396,1.5
40.1,0.5741021324791467,-0.5155683669922481,1.6642160456056763,0.5330629485796666,-0.03961910256325373,0.13511417059489825,30.35190947410237,76.36462561399112,1.5
40.2,0.2738940853615708,-0.48353059334812565,-1.0786338233344381,-0.14743152215545685,0.035875567379389295,-0.479030506446258,30.35191013693229,76.36462606050829,1.5
40.300000000000004,0.35545609359448754,-0.35713090145660986,-1.8421897850322388,-0.05528745841700456,-0.20903447280937354,-0.38715945220561343,30.35191079976221,76.36462650702545,1.5
40.400000000000006,-0.2736544649503707,0.4165224846038764,-0.9744577138752365,-0.012897930466109455,-0.07413628451590798,-0.2023392747610192,30.351911462592124,76.3646269535426,1.5
40.5,0.2373003814869614,1.0804336220449642,1.5487469570341597,-0.034999532683515355,-0.13715643683957024,0.10289350675869906,30.351912125422043,76.36462740005976,1.5
40.6,0.43151722983236507,0.81759374365532,1.8345945401795785,0.0770962882818316,0.4397615816911541,0.3869062490784232,30.351912788251962,76.36462784657692,1.5
40.7,-0.9912554749621412,-0.16590333116181766,0.330289000710369,-0.3035667883694042,-0.021054572767061963,0.1622170159764739,30.35191345108188,76.36462829309409,1.5
40.800000000000004,0.04920133014123364,-0.602410444411581,-1.5522445439354857,-0.0046461122397790655,0.3587965170752403,0.26945568891164273,30.3519141139118,76.36462873961125,1.5
40.900000000000006,-0.001759630269197207,-0.6610424915102608,-1.4824411143355207,0.2443244108554589,0.16847328658801902,0.22469116250486282,30.351914776741715,76.36462918612841,1.5
41.0,0.5724590967499861,-0.5160791635612176,0.9456206774925936,0.14621701586146688,-0.38037346859944265,0.13637539742697005,30.351915439571634,76.36462963264556,1.5
41.1,1.0939694854525366,0.4918287247370281,0.5119955290019267,0.1116286980077754,0.14857154471088527,-0.2725026093359822,30.351916102401553,76.36463007916272,1.5
41.2,-0.8335452903913945,0.32414190380240226,2.185813686019636,-0.7728760750157699,0.16497228381332982,-0.8354225434387137,30.351916765231472,76.36463052567989,1.5
41.300000000000004,0.3332171425448085,0.2516220531459527,-1.7273323696846914,0.16216183508257387,0.08324553822808181,-0.1795026759659761,30.35191742806139,76.36463097219705,1.5
41.400000000000006,0.8185417725775495,0.44196352193038085,-1.9439439498811504,0.007265637623345887,-0.22351702276457167,-0.029838980935948025,30.351918090891306,76.36463141871421,1.5
41.5,-0.353069582285259,0.6423485978471271,0.5735061869849105,0.22102344730797685,-0.14227499197707155,-0.24666128411378757,30.351918753721225,76.36463186523137,1.5
41.6,0.45794986730478004,0.75249124862402,2.138077157078038,-0.0012186359927424256,0.08605225465658903,0.17669455135020187,30.351919416551144,76.36463231174852,1.5
41.7,-0.580929791265741,-0.5420953125593886,0.9676914279772226,-0.26981744968461374,-0.25133385998305335,0.060496134204931384,30.351920079381063,76.36463275826569,1.5
41.800000000000004,0.1834083158483525,-0.549124737540417,-1.2465851172788658,0.2542097254440859,-0.5761114253724128,0.27062844245083734,30.35192074221098,76.36463320478285,1.5
41.900000000000006,-0.4153724638513539,-0.20757321470071372,-1.9965960571840875,0.16988694336014964,0.1392949231980035,0.08778633702711054,30.351921405040898,76.36463365130001,1.5
42.0,-0.22323753957926762,0.06493528738021209,0.7342051830795318,0.17836894779221452,-0.1682693887599263,0.023909934575239697,30.351922067870817,76.36463409781717,1.5
42.1,0.6114657673168048,0.19591588639162313,0.7281006826613575,0.00795225379988856,-0.23582058884556203,-0.14971637117358136,30.351922730700736,76.36463454433434,1.5
42.2,-0.4730939095311512,-0.2313805521454957,1.8988314371260477,-0.7354047206880987,-0.09325033130292465,-0.5184130098160128,30.351923393530654,76.36463499085148,1.5
42.300000000000004,0.33740151374342564,0.0026070623220212225,-2.0012284845241415,-0.14741183357534907,0.24237547385471608,-0.34201900562542314,30.35192405636057,76.36463543736865,1.5
42.400000000000006,0.2631207335469286,0.46341020874988587,-1.9935231749513536,0.23223368035989683,-0.0721044633421495,-0.11535649835207794,30.35192471919049,76.36463588388581,1.5
42.5,0.22270077236267122,1.0892461976354981,-0.1326775240680411,0.12648349281192317,-0.18059613681672637,-0.058607625264930865,30.351925382020408,76.36463633040297,1.5
42.6,0.14210319567511864,0.5756757103798522,1.0566258535634128,-0.07819883462549441,-0.01587868159718897,-0.018046006835954455,30.351926044850327,76.36463677692014,1.5
42.7,-0.44857429690146505,-0.08173911684952662,1.7362319470712264,-0.018064334309205454,0.24492980990597485,0.3672304779108447,30.351926707680246,76.3646372234373,1.5
42.800000000000004,-0.009684707858484805,-0.6751764461625838,-1.6017057512820378,0.042354842843562224,-0.1471530715525095,0.5640386132955723,30.35192737051016,76.36463766995445,1.5
42.900000000000006,-0.37933900843226176,-0.36100077522774066,-2.5642101392775336,0.01794979370522015,-0.03188686556416814,0.18854827361209558,30.35192803334008,76.36463811647161,1.5
43.0,-0.43947675582767226,-0.17357433452804005,0.1414267676193911,0.10054473587729103,-0.012469086511879557,0.07672353831896292,30.35192869617,76.36463856298877,1.5
43.1,-0.07733450212342295,0.2681172797036233,2.1534027381567116,0.08640894538277645,-0.07580451859523536,-0.10645355401442733,30.351929358999918,76.36463900950594,1.5
43.2,-0.5032969935502314,-0.8484277511243086,2.485168581756321,-0.49592877894125104,-0.03137459556842945,-0.5231792947049485,30.351930021829837,76.3646394560231,1.5
43.300000000000004,0.23576763716529578,-0.03998911765695631,-1.3685495845277569,-0.27455505553652076,0.21139174193441623,-0.2372826592814741,30.351930684659752,76.36463990254026,1.5
43.400000000000006,-0.0038872379057135024,0.1696500643361489,-2.1502857555135915,0.06309382975709539,-0.12065755653600602,-0.004889043693799362,30.35193134748967,76.36464034905741,1.5
43.5,0.29877383941174096,0.5618140598650333,-0.5896251960642624,0.17851202799627094,0.07820477708989454,0.04556218985333527,30.35193201031959,76.36464079557457,1.5
43.6,-0.727037686581507,0.9117978250098042,1.6323369933308225,-0.08431878709796116,0.0024129258008184634,0.06208682121225313,30.35193267314951,76.36464124209174,1.5
43.7,-0.35377711189604105,-0.2808770319984688,3.4207906831181742,0.20396502367181096,0.38435251356748623,0.4593992399490855,30.351933335979428,76.3646416886089,1.5
43.800000000000004,-0.014281932710782819,-0.37150115223636687,-0.6349862217246109,-0.23064236996013404,0.26074211899332866,0.5597961037454006,30.351933998809344,76.36464213512606,1.5
43.900000000000006,-0.47188849585910675,-0.3503367836642551,-2.668137242445554,0.33030384663134327,-0.14128131047508274,0.5077736414650746,30.351934661639262,76.36464258164322,1.5
44.0,-0.5258164402318523,0.2577933214769842,-0.9905114992810248,0.04932655037283022,-0.07203648188840917,0.3038874762667202,30.35193532446918,76.36464302816037,1.5
44.1,0.05064927225118307,0.08688586508037532,1.6725573233557085,0.13489842050626655,-0.2947488713128366,0.22607793304347704,30.3519359872991,76.36464347467754,1.5
44.2,0.7466206614620663,-0.791040959405134,2.225416340944995,0.1438181620658157,-0.258201907033745,-0.04063028722761272,30.35193665012902,76.3646439211947,1.5
44.300000000000004,0.4654988429349496,-0.5756331927647342,-0.2236085056219861,-0.05645037490759611,0.42528730356366484,-0.1435255355905527,30.351937312958935,76.36464436771186,1.5
44.400000000000006,0.07925588304601303,-0.6617080590968883,-1.9257252194860697,0.5480457832231066,-0.1509215243032401,-0.05094904080201478,30.351937975788854,76.36464481422902,1.5
44.5,-0.34453248368420003,0.055645510574850426,-2.644996970333352,-0.05438774563474365,0.010405231721379126,-0.054092466303196925,30.351938319892113,76.36464389959542,1.5
44.6,-1.4389219399790487,0.56973655558052,0.3145905217675271,-0.0357368752418303,-0.061115598376403776,0.18374109089332763,30.351938097370198,76.36464056513823,1.5
44.7,-1.8155698725364062,0.3417305614353842,2.47336000249686,-0.07396233898020727,-0.19014012765247262,0.7561878044950125,30.351937874848282,76.36463723068105,1.5
44.800000000000004,-1.4017144416059237,-0.6030362818576769,2.4115809742407555,-0.26986653087829227,0.253075748331703,1.156994503087583,30.351937652326367,76.36463389622388,1.5
44.900000000000006,-2.731659483679053,-1.9695881742030192,-0.2792411012865282,0.04959989147100864,0.3801168679987181,1.6588264460970383,30.35193742980445,76.36463056176669,1.5
45.0,-1.7553777317008743,-1.4512194716287312,-1.9572179289481026,0.15915383098951605,0.3834466514466198,1.9270354380468733,30.351937207282536,76.36462722730951,1.5
45.1,-0.863856041804724,-1.0228677841963632,0.12347232077186526,0.2217620851482599,0.24625059090207535,1.751142286075507,30.351936984760624,76.36462389285234,1.5
45.2,-0.5141572993553472,-0.7617622617452184,1.257084319825525,0.07849835841395217,0.31005475921667897,1.2150538204020744,30.351936762238708,76.36462055839515,1.5
45.300000000000004,-0.6861792690311642,-1.4230640895639124,3.1224126543314132,-0.0944394962892819,0.6747347116847041,0.878105049519125,30.351936539716792,76.36461722393797,1.5
45.400000000000006,0.11569428669357382,-0.4170926014037325,-1.4206682483406265,-0.32436011652304164,0.7516107487610598,0.7716605942077011,30.351936317194877,76.36461388948078,1.5
45.5,0.44175266131142366,0.1809543886452355,-1.5314981332701696,0.10401828806361504,0.35808729269823264,0.8793906552866035,30.35193609467296,76.3646105550236,1.5
45.6,0.4538395799493197,0.48153686011257063,-0.973017620254319,0.2317761724984099,0.14396822624033917,0.6452362892163044,30.351935872151046,76.36460722056643,1.5
45.7,-0.7013638155555456,0.4165552095013334,1.2171320414368014,0.02496879605510694,0.04752640455248657,0.5787167720006017,30.35193564962913,76.36460388610924,1.5
45.800000000000004,-0.64844785659181,0.14790875158542754,2.909689169806974,0.10804172839200474,0.08303815786808535,0.6505712832177503,30.351935427107218,76.36460055165206,1.5
45.900000000000006,-0.9798208341249608,-0.3555919963829431,1.4496239796119772,-0.2683025941786234,0.7134023150885314,0.6606267892033243,30.351935204585303,76.36459721719488,1.5
46.0,-0.9268053342385437,-1.0968850377684398,-1.8790331955788564,0.34107617490783615,0.012644574116885798,0.7271493596142334,30.351934982063387,76.3645938827377,1.5
46.1,-1.2711699234881515,-0.5791544462284631,-2.0439207647027278,0.3749981407342445,0.19391814986325193,0.6631928667668465,30.35193475954147,76.36459054828052,1.5
46.2,-0.09395488595286555,-0.00794633135699041,0.34121354753403177,0.22483794325502443,-0.08638262682532628,0.46318104054124964,30.351934537019556,76.36458721382333,1.5
46.300000000000004,-0.10394202573312294,-0.8171615681655485,2.521270724556059,-0.08208840356715189,0.052583237113778714,0.06912261780142756,30.35193431449764,76.36458387936615,1.5
46.400000000000006,-0.7562788324363526,-1.5680767370082327,2.3614062002132714,-0.7422477420313093,-0.04518486027139469,-0.8121173830289039,30.351934091975725,76.36458054490897,1.5
46.5,0.7925107111703977,-0.584523727670005,-2.507781479972948,0.2865487601425435,0.0844364964874614,-0.08641753405732439,30.35193386945381,76.36457721045178,1.5
46.6,0.22030973445718205,-0.3421112460055419,-1.8954482694975474,-0.004026857196735443,0.17492462929884603,-0.21009798292362464,30.351933646931897,76.36457387599461,1.5
46.7,-0.22378652138667052,-0.07259467553673696,0.8045087456764637,0.013472956786824699,-0.02028989048050069,-0.22653358880558175,30.35193342440998,76.36457054153742,1.5
46.800000000000004,-1.0053448388708517,0.5011963729781095,0.8749172034243657,-0.00918919479201678,-0.08492933578019254,0.05985973302310446,30.351933201888066,76.36456720708024,1.5
46.900000000000006,-1.0340726468038712,-0.25240282651139717,1.6402475398990957,-0.15320380788978372,0.2010386157358927,0.3947332648553547,30.35193297936615,76.36456387262307,1.5
47.0,0.3631076030310217,-0.9180828633659723,-0.4033525994063542,0.19661500301685508,0.17411078390578164,0.7983251341719566,30.351932756844235,76.36456053816588,1.5
47.1,-0.18897843156900412,-0.8710805342554186,-1.887978150110809,-0.04126581558191129,0.10971324228734172,0.3940450333759004,30.35193253432232,76.3645572037087,1.5
47.2,-0.24649396656819167,-0.37904630585461063,-0.3389416889738103,0.32610127843961534,-0.1387913869812067,0.2854591259810384,30.351932311800404,76.36455386925152,1.5
47.300000000000004,0.8019125310564148,-0.41239439386059457,1.670211498424178,0.28725801818529095,-0.13285670755475268,0.04231823415091777,30.351932089278492,76.36455053479433,1.5
47.400000000000006,0.6185919695710297,-0.7959434300404504,1.5083320368570639,-0.19924404348784935,0.033158361939146674,-0.45397122438094495,30.351931866756576,76.36454720033716,1.5
47.5,0.07068079816683666,-0.8417541892505201,-0.16521473087158223,-0.22817095906025334,0.13376596104637128,-0.6194616678351716,30.35193164423466,76.36454386587997,1.5
47.6,0.2140502311013936,0.29617124854486293,-2.27211462080125,-0.10938371233181024,0.05311770860975895,-0.21051804393307266,30.351931421712745,76.36454053142279,1.5
47.7,-0.39736748539334654,0.7135616075175225,-0.7909351112410767,0.30718683822427334,-0.031197569829930633,-0.1559623230781612,30.35193119919083,76.36453719696561,1.5
47.800000000000004,-1.011352360414817,0.5447095983423081,0.5846672595336271,0.08295907282367,0.15493458111452824,-0.035689466142842324,30.351930976668914,76.36453386250842,1.5
47.900000000000006,0.39682691703957984,-1.3513982722116094,3.420772356186009,-0.11815292546156811,0.1551915772457962,0.14316839303614215,30.351930754147,76.36453052805125,1.5
48.0,0.5007627953675129,-2.0088249429241585,0.6015759769359197,-0.20812281636409202,0.23454652134417692,0.469760473120495,30.351930531625086,76.36452719359407,1.5
48.1,0.6313409454488108,-1.7379728361173106,-1.60629551780556,0.012895867548139206,-0.16002615272904505,0.3552775264177752,30.35193030910317,76.36452385913688,1.5
48.2,0.16249078772600073,-1.2274274941904715,-1.4278679590619627,0.25003161855724365,-0.1762320887534925,0.1962117730594906,30.351930086581255,76.3645205246797,1.5
48.300000000000004,0.0004926721023391922,-0.7103342376832461,1.9816068013821737,-0.07597140150764517,-0.20264076249537075,-0.02642295410481492,30.35192986405934,76.36451719022251,1.5
48.400000000000006,1.4525327105741208,-1.8095531268493608,1.3221462390337506,-0.3080869991216189,-0.2677875650053968,-0.3765830126094494,30.351929641537424,76.36451385576534,1.5
48.5,-0.13972967067835684,-1.3440301594869273,2.601368639022507,-0.6844867236282663,0.10598694805655962,-1.0057778669684017,30.35192941901551,76.36451052130816,1.5
48.6,0.4301420867226957,-0.07152297020695952,-0.8266063362402225,-0.08129357939366733,-0.01602809220742571,-0.22256196011133522,30.351929196493593,76.36450718685097,1.5
48.7,-0.23818818317850016,0.14944468611683928,-0.044880116547997506,0.14606301121148424,0.1896302224710218,0.02211952219261079,30.35192897397168,76.3645038523938,1.5
48.800000000000004,-0.3101774320826696,-0.1015955853169211,2.132364554000178,0.37157828644200597,0.00960988425374346,0.24783503037123542,30.351928751449766,76.3645005179366,1.5
48.900000000000006,0.7146227695146594,-0.27789617319435667,1.6429217541480998,0.6168881254807831,0.33229385570563713,0.44871084697148955,30.35192852892785,76.36449718347943,1.5
49.0,-0.18926287496375171,-1.4241553592150582,0.43433915997799954,0.06521437176629029,0.03482102232909634,0.23318972144257152,30.351928306405934,76.36449384902225,1.5
49.1,-0.002319618137955448,-1.3595625798120132,-1.4395776762542043,0.4843892433066457,-0.3707998100926955,0.31932716971537795,30.35192808388402,76.36449051456506,1.5
49.2,-0.3841089972578444,-1.3010232931714432,-1.0570548318774122,-0.008879576012604973,0.01833955079867655,-0.0013839121988713995,30.351927861362103,76.36448718010789,1.5
49.300000000000004,-0.009145257782306293,-0.7716613669964089,0.7183399595920997,0.34847226222443517,-0.17474068755192362,0.07454633620699633,30.351927638840188,76.36448384565071,1.5
49.400000000000006,1.2704942279965896,-0.2851092017772402,0.025944407101749223,0.18768143886541416,-0.32087136830209145,-0.13078668201011953,30.351927416318276,76.36448051119352,1.5
49.5,0.4976093632630333,0.4337146688992273,0.6911796240116299,-0.795175921638567,0.0555511571227329,-0.6677337329057449,30.35192719379636,76.36447717673634,1.5
49.6,0.40294181514301286,1.0049288723774552,-1.097520221130895,-0.23205413909647057,-0.019018550375385874,-0.3172855567715087,30.351926971274445,76.36447384227915,1.5
49.7,0.05064149437616412,1.3966545276424591,-2.1498662855515254,-0.05991176881383001,0.0030604361931644546,-0.2966459748309258,30.35192674875253,76.36447050782198,1.5
49.800000000000004,-1.0262354054064649,1.3319678178941892,1.0999005504814945,0.06556670560173822,-0.16784934983119526,-0.20539534021412598,30.351926526230613,76.3644671733648,1.5
49.900000000000006,-0.09883684911109314,1.3068093505531353,1.0352798827810146,0.09115154759180402,0.13075807739443004,0.1373761596055636,30.351926303708698,76.36446383890761,1.5
50.0,-1.3634199992062053,0.3978733979234103,0.907542500287377,-0.10034943921709162,-0.10100939924017308,0.21281207644726857,30.351926081186782,76.36446050445043,1.5
50.1,0.23026427845411487,0.03734591129667039,-2.1665484158736494,0.11635363085429756,-0.29123798628881636,0.3387047142332361,30.35192585866487,76.36445716999326,1.5
50.2,-0.06499672459813838,0.3224717288438237,-2.1033074210327616,0.2493333004822009,0.16621860272317612,0.43774442827337495,30.351925636142955,76.36445383553607,1.5
50.300000000000004,-0.5548139381886904,0.3710639905939207,0.09077093937387104,0.24265643259683128,-0.28377903749305106,0.21821661985759175,30.35192541362104,76.36445050107889,1.5
50.400000000000006,0.7768410806710896,0.47503619110897183,1.0499287841670342,-0.18264619503454574,-0.3857330417958579,-0.10449157653867636,30.35192521026049,76.36444725426526,1.5
50.5,-0.3297628446705221,-0.10117029817428091,0.7445954033012241,-0.4057881559529057,0.3661520694536914,-0.4216979904535574,30.351925466772723,76.36444611089678,1.5
50.6,0.27934638398345135,0.5887389509762405,-1.9818260151234601,0.08233737919967712,-0.008790375763386656,-0.02424634637643548,30.351925723284953,76.3644449675283,1.5
50.7,0.38040479455199816,1.1912220862887095,-2.80760114008553,0.21413724782421859,0.10035987735785783,0.11195893862953332,30.351925979797187,76.36444382415982,1.5
50.800000000000004,-0.17969049710215762,1.4036416849560458,0.170809913304519,-0.13456263003301105,0.04568012604859369,-0.07013896046453624,30.35192623630942,76.36444268079134,1.5
50.900000000000006,0.37305334393510825,1.3716861162063614,2.111324742915671,-0.0318545339808472,0.35816326383228797,0.2241379626921534,30.35192649282165,76.36444153742286,1.5
51.0,0.7093047552463998,1.1277652765594304,1.1794894902353668,-0.21298963051083747,-0.5559119496647683,0.14938015682578032,30.351926749333884,76.3644403940544,1.5
51.1,0.6578954771562954,-0.02691673975252898,-2.206446251366996,0.3489537189727708,-0.31692749787085733,0.669825833893845,30.351927005846115,76.36443925068592,1.5
51.2,-0.1344000877457255,0.6145226343308436,-1.9713313332371047,-0.1368748811190308,-0.18590525979026223,0.18720251036927282,30.35192726235835,76.36443810731744,1.5
51.300000000000004,0.3141259506298959,0.6895102473202525,0.24870375567327274,0.36074009826635506,-0.1759339373163496,0.09743833460685522,30.351927518870582,76.36443696394896,1.5
51.400000000000006,0.41166284684474036,0.29652578416553177,1.1044092354554689,0.09139275724641593,-0.19730213294787974,-0.3098404299296431,30.351927775382812,76.36443582058048,1.5
51.5,0.3719878234678347,-0.3681280197132961,1.192111260478985,0.07974851556206579,0.032267058732713814,-0.4149794251113523,30.351928031895046,76.364434677212,1.5
51.6,0.007955138369412598,0.27554913347617455,-1.5346569050433776,-0.0863190082159877,0.13030379198155198,-0.5047292810213565,30.35192828840728,76.36443353384352,1.5
51.7,-0.013049388810527016,1.1330973915683098,-2.2876824035248458,-0.08248811082249119,0.07007251832726455,-0.26487232545323613,30.35192854491951,76.36443239047505,1.5
51.800000000000004,-0.4420579944104852,1.230921455544101,1.8280148041180992,-0.04397872693537759,-0.1625791398075716,-0.10853827551412511,30.351928801431743,76.36443124710657,1.5
51.900000000000006,0.137420790139141,1.4053692645987206,-0.015142446071086724,0.22321218899376677,0.1354136708360422,0.25381447065737706,30.351929057943973,76.3644301037381,1.5
52.0,-0.4851534211572064,0.3987157696162106,1.1078976474207547,-0.1398919202354768,0.18536964673642897,0.27532510856075193,30.351929314456207,76.36442896036962,1.5
52.1,0.10632083448108634,-0.08990078102254075,-1.6182165724294313,0.11317336572374606,-0.07941551116329175,0.49359729190071333,30.35192957096844,76.36442781700114,1.5
52.2,-0.5831750379652704,0.12342862226172681,-2.2249826186942627,-0.22072208345741434,-0.09394181575856839,0.15693433326768125,30.35192982748067,76.36442667363266,1.5
52.300000000000004,-0.0725786823510427,0.2749697364259944,0.29428124205289385,0.40155766732695264,-0.1668379149002779,0.23633488977325462,30.351930083992904,76.36442553026419,1.5
52.400000000000006,0.17655676140156806,0.5607311977237477,1.083943519012949,0.21336527761899562,-0.19545773925921686,0.008027269227673224,30.351930340505138,76.3644243868957,1.5
52.5,-0.44881279017323994,-0.4639484336112025,1.4864825766465666,-0.24349373084995615,-0.17347719332537784,-0.6403273102221473,30.35193059701737,76.36442324352723,1.5
52.6,0.404032755098341,0.5213280680152831,-1.7987869066836286,-0.2498870563450909,0.1333821139176179,-0.45552367014021267,30.351930853529602,76.36442210015875,1.5
52.7,-0.131990613545682,0.8610947502905593,-1.7115147744522863,-0.04571302094789021,0.16634980135101368,-0.28699708716129724,30.351931110041836,76.36442095679027,1.5
52.800000000000004,0.019597934379089438,1.461785607683244,0.6619933999435323,0.1096891078303974,-0.16750324954767085,-0.08505120572851348,30.351931366554066,76.3644198134218,1.5
52.900000000000006,0.7124387412935611,1.5820195518631792,1.3553313364400363,0.024840830929495905,-0.08372277417744259,0.11025849681132392,30.3519316230663,76.36441867005333,1.5
53.0,-0.9072250703884539,-0.11719457968667113,1.1756116266274805,0.24582954576566088,0.22180280944334055,0.29230850037940914,30.35193187957853,76.36441752668485,1.5
53.1,-0.06893207833138637,-0.4382555295225199,-1.28855701493295,0.17286402171584075,-0.27069916722933796,0.4801663691487692,30.351932136090763,76.36441638331637,1.5
53.2,-0.72357209975163,0.018459045612250813,-2.12740463666331,0.018308715250109478,0.033035195727659505,0.2825030904440839,30.351932392602997,76.36441523994789,1.5
53.300000000000004,0.20269401381009805,0.2591039653513326,0.18754326598792034,0.24407641867198449,-0.001027931936998669,0.22664272108926178,30.351932649115227,76.36441409657941,1.5
53.400000000000006,0.702594282391162,0.3365200688464393,1.2182153096415598,0.05653676744632278,0.048713888143761486,-0.05574957364747357,30.35193290562746,76.36441295321093,1.5
53.5,-0.8046621818333238,-0.4726171998373484,1.2998635798844462,-0.3280280109834376,-0.14800127826479856,-0.7084512182415725,30.351933162139694,76.36441180984245,1.5
53.6,0.2041211868266631,-0.18599702763851564,-1.2871358238416937,-0.28511200258730435,0.35063339091883766,-0.3855934201829688,30.351933418651925,76.36441066647397,1.5
53.7,0.12628878987615938,0.3802604162940591,-2.1802251305465994,-0.2188187225401318,0.14267728714379638,-0.11628852646882028,30.351933675164158,76.36440952310551,1.5
53.800000000000004,-0.1103870469558007,0.7874545056799268,-0.4262278255841445,0.10830427842095544,0.043453579287520194,0.03862028750102438,30.35193393167639,76.36440837973703,1.5
53.900000000000006,-0.151839927749023,0.7032804135229386,1.6824846240597837,-0.018264384766021612,0.14614417635048435,0.20368816302798792,30.351934188188622,76.36440723636855,1.5
54.0,-1.1292492510527374,-0.508429643888773,2.3579946598367503,0.2038958678430006,0.08076626213145752,0.6958483964859128,30.351934444700856,76.36440609300007,1.5
54.1,0.4673128751364709,0.29761522915589833,-0.9404178017716243,-0.1792533666182462,0.06737938182595032,0.39656728513230033,30.351934701213086,76.36440494963159,1.5
54.2,-0.17542268352724394,-0.1418810631273471,-1.8409817555398462,0.13840361880240815,0.16556407409834015,0.10053439575830117,30.35193495772532,76.36440380626311,1.5
54.300000000000004,-0.4284214805799459,0.05903325321624579,-0.09335329670218906,0.25364398185603,0.10285778792984493,0.12308447509271532,30.351935214237553,76.36440266289463,1.5
54.400000000000006,0.37202550344760416,0.4607646830859692,0.5832730955967736,0.12481253626825584,-0.32162432936349306,0.11656645174560377,30.351935470749783,76.36440151952615,1.5
54.5,0.9633848724082924,-0.33766559225448584,1.5846986141954704,-0.19844640383257284,-0.27799373422224527,-0.1775928239248405,30.351935727262017,76.36440037615768,1.5
54.6,0.415864710663836,0.07609171992601316,-0.4571212431953109,-0.8387877299764479,0.2278857372953247,-0.5701637746016044,30.35193598377425,76.36439923278921,1.5
54.7,0.24617036742272075,0.5341904558208086,-1.8243658049894032,0.08837757539708618,0.023310169018513252,-0.09877059621455525,30.35193624028648,76.36439808942073,1.5
54.800000000000004,0.07850036191610843,0.8177915551559549,-0.6917579609535324,0.23416768034805754,0.09468232310721908,-0.15251157757390288,30.351936496798714,76.36439694605225,1.5
54.900000000000006,-0.9132542534087779,1.1505093377813258,1.3586789889955158,0.15548216535163856,-0.015511322102726238,0.03580135934926107,30.351936753310945,76.36439580268377,1.5
55.0,-0.46979481445719395,-0.24898428460208,1.6253273416266745,0.03667586307134432,-0.21859211332657508,0.2579741674369088,30.351937009823178,76.3643946593153,1.5
55.1,0.8003512125629286,0.25074942937132444,-0.3804481814487927,-0.3759413413949088,0.35586780748809677,0.15106954192359648,30.351937266335412,76.36439351594682,1.5
55.2,-0.034498494773672214,-0.6438376249894556,-0.9931416381417666,0.05673674809525747,0.3047314056402137,0.16778612421603384,30.351937522847642,76.36439237257834,1.5
55.300000000000004,-0.4045382399166403,-0.11030586230222958,-1.6294932294320632,0.1481961199111862,-0.062234361057208074,0.2296730555077389,30.351937779359876,76.36439122920986,1.5
55.400000000000006,0.13453766826169763,-0.25790064636126636,0.06351039277776338,0.11688426063509906,-0.051104697978323,0.2072328130273697,30.35193803587211,76.36439008584138,1.5
55.5,1.4806936811559381,0.07748617704815906,3.3959240163691087,-0.28826016367690194,-0.09895319319850407,-0.0005373568736283738,30.35193827709578,76.3643890001174,1.5
55.6,-0.5650252281006715,-0.4014784383951695,0.528388085137339,-0.5427300430329948,0.2909948950530047,-0.8422130999267446,30.35193851322328,76.36438793360817,1.5
55.7,0.5356476645386653,0.5110927328123769,-2.5817067023707856,0.1745639240515955,-0.01446330654947977,-0.11475780869060145,30.351938749350786,76.36438686709896,1.5
55.800000000000004,0.39395899224288095,0.5988089575420645,-1.5526222608389568,0.4043926921998196,-0.17653958148085705,0.04267347011623612,30.351938985478288,76.36438580058973,1.5
55.900000000000006,-0.5224210911566807,0.6482066057140462,1.2464320771251902,0.011956669343278626,-0.10369236761778079,-0.07404094547671312,30.351939221605793,76.36438473408052,1.5
56.0,0.2777932217941805,0.7875834809063678,0.298425927360945,0.26194829310532675,0.19769954439895376,0.4649366545186137,30.351939457733295,76.36438366757129,1.5
56.1,-1.3629373177358903,0.488958674575331,1.0461376271545035,-0.5854328296737819,-0.1310187920036695,0.10091519900687451,30.351939693860796,76.36438260106208,1.5
56.2,0.2650713038616287,-0.3397324831691992,-0.92678400489195,0.1727638833873285,-0.05577206673123858,0.6002490043838064,30.3519399299883,76.36438153455285,1.5
56.300000000000004,0.1757431955717626,-0.14713063140235877,-2.2584284820276674,0.2032493225161095,0.09069200537821172,0.4636386952455711,30.351940166115803,76.36438046804363,1.5
56.400000000000006,-0.3943184448603002,-0.21832626482036138,-0.09542522171264556,-0.0477373877296402,-0.44784976334692445,-0.00046868916215059286,30.351940402243304,76.3643794015344,1.5
56.5,1.3989619525786305,0.42374891014710186,0.6819277357723611,-0.010792357160286134,-0.0989874069541211,-0.03997042438907131,30.35194063837081,76.36437833502518,1.5
56.6,-0.48281313146677163,-0.4544319165232692,1.6652064495460528,-0.5074027991095237,-0.16224617321881707,-0.6518302663776822,30.35194087449831,76.36437726851597,1.5
56.7,0.48193206681211354,0.01812285222717497,-0.8436677813102353,-0.15784693681922907,0.031057025340085836,-0.2965527213808469,30.351941110625816,76.36437620200674,1.5
56.800000000000004,0.36532273917653374,0.6178010120044041,-2.5119881010588263,0.26435265543917624,-0.21590503128277763,-0.21635213650555002,30.351941346753318,76.36437513549753,1.5
56.900000000000006,-0.7550287199438929,1.114351609833606,0.06834604057797478,-0.1106222016159507,0.24541188627981012,-0.48084656269814696,30.35194158288082,76.3643740689883,1.5
57.0,0.5166257228231669,1.3853529770672735,2.3533816218949717,0.16307475489629772,-0.2784343458860634,0.10212997868683527,30.351941819008324,76.36437300247908,1.5
57.1,-1.0013028445360066,-0.6030435313039288,1.420751195932807,0.15384456477778788,-0.030651948027746734,0.38349727398822314,30.351942055135826,76.36437193596986,1.5
57.2,0.4763640738367877,0.09571186960184053,-1.9647606976107306,-0.03109060695139504,0.22331104083375114,0.5257862502520328,30.351942291263327,76.36437086946064,1.5
57.300000000000004,-0.3745231745620329,-0.2978891343467101,-0.9863480672815956,-0.11212905136760122,0.280654548049333,0.260092303800743,30.351942527390833,76.36436980295142,1.5
57.400000000000006,0.12729834579890661,0.38022872974930966,-1.2011031018542484,0.6869712292744641,-0.25046252305313627,0.254822313805159,30.351942763518334,76.36436873644219,1.5
57.5,-0.06293348636938086,0.7921478237435475,0.8918803297914809,0.009549889255726085,-0.2650745789852979,-0.08218923367530999,30.351942999645836,76.36436766993297,1.5
57.6,0.5171862248732905,0.4254864292121334,2.470691816033,-0.15834297316239931,-0.11937399994811565,-0.2742672708043039,30.35194323577334,76.36436660342375,1.5
57.7,1.2278975310451492,0.18247723411299488,-0.28625500201369913,-0.29249737906247275,0.5478328413950357,-0.5600720320246226,30.351943471900842,76.36436553691453,1.5
57.800000000000004,0.1474848134203952,-0.02631032622336996,-2.2279940728310663,0.031847057483270075,0.20480443007506335,-0.28532281125003417,30.351943708028347,76.3643644704053,1.5
57.900000000000006,0.3123189336486819,0.9488782091193153,-1.4951693233245082,0.004474960354430485,-0.02983428492586137,-0.1252057155650037,30.35194394415585,76.36436340389609,1.5
58.0,0.08450912987044501,0.29772232401768317,2.5545648454381378,0.016386567640124416,-0.14486044354971592,-0.031474671182707956,30.35194418028335,76.36436233738686,1.5
58.1,0.45503202693413186,0.5854271058539295,1.9818492873096103,-0.18664404886911973,-0.17197408261419445,0.08078952383830167,30.351944416410856,76.36436127087764,1.5
58.2,-0.30083030484050566,-0.020757458612659985,0.31747547325179815,-0.5795401358391201,0.2357547186919574,0.2416034186854846,30.351944652538357,76.36436020436842,1.5
58.300000000000004,-0.13523866268997672,0.3938270506028678,-2.2835237404073228,0.29867299696153404,-0.1884275472565004,0.6458773687222268,30.35194488866586,76.3643591378592,1.5
58.400000000000006,-0.48680326906674637,0.5855346282449554,-1.1861846895452888,0.05087680235972075,0.04306643871592106,0.23716505014262432,30.351945124793364,76.36435807134998,1.5
58.5,0.37647050691630946,0.2632148506887414,0.4931866164473111,0.3603939298364984,-0.0634181720263388,0.34127073653910767,30.351945360920865,76.36435700484076,1.5
58.6,0.6158196350693825,-0.30046948396508943,2.7776586305269193,-0.1763886836802921,-0.09218560778733477,-0.21747693603532547,30.35194559704837,76.36435593833154,1.5
58.7,0.49141906934454155,-0.8705915429347169,0.14105129166180475,-0.3265346119172356,0.18699847179342177,-0.5951603618149599,30.351945833175872,76.36435487182231,1.5
58.800000000000004,0.4697228102976404,-0.6263193319869982,-1.342661533853394,0.10403428755037894,-0.013560329870867416,-0.5050350817933295,30.351946069303374,76.3643538053131,1.5
58.900000000000006,0.4733725415757088,-0.06357449237408513,-1.378498706708132,-0.06112831961755533,-0.044770105562414564,-0.3396830787819546,30.35194630543088,76.36435273880387,1.5
59.0,0.19527379924813307,0.535367552937506,1.2015914264329588,0.0036626729782154865,-0.22399662866476538,-0.08966235488305645,30.35194654155838,76.36435167229465,1.5
59.1,0.359836846332795,0.2825190926087785,-0.1600575621196927,0.3034930234716311,0.21820317842709702,0.2609491270246216,30.351946777685882,76.36435060578543,1.5
59.2,-0.5540418090576473,-0.7117722995421442,1.1030723682562598,-0.18473071413744135,0.03205277074807117,0.15087806278991678,30.351947013813387,76.3643495392762,1.5
59.300000000000004,0.21698914984104162,-1.0478465120318152,-0.7491563661237758,0.012298052275656932,-0.0006861971864823915,0.39306600984271844,30.35194724994089,76.36434847276699,1.5
59.400000000000006,-0.4522058254283566,-0.36897852655868835,-1.8916004770520791,-0.1607038483477437,-0.14232336684553815,0.28805766144856726,30.351947486068394,76.36434740625776,1.5
59.5,-0.8145983532145561,0.08377464624206046,-0.5458210816685297,0.030660955098091962,-0.08932571245543974,0.14316256232104993,30.351947722195895,76.36434633974855,1.5
59.6,0.4581312685739824,0.29639320893554677,2.364560692012019,-0.09583235345836413,0.07878120779363978,-0.010794006830970607,30.351947958323397,76.36434527323932,1.5
59.7,-0.007346375088985613,-0.48399014490241765,0.4008365492670176,-0.3208322601262963,-0.6507023085969132,-0.3509745470068941,30.3519481944509,76.36434420673011,1.5
59.800000000000004,-0.6786327771398084,-0.32549387155039977,-0.3485571309034219,-0.10186507524399141,0.05941119442612597,-0.4533296234642163,30.351948430578403,76.36434314022088,1.5
59.900000000000006,0.006538251206139753,0.0055986572323530465,-1.9265152060096755,0.002731385508181694,0.20769997218984793,-0.183513328474791,30.351948666705905,76.36434207371165,1.5
60.0,0.7753469723786174,0.25689860050227636,0.3360254036364907,-0.00451787798743436,0.15089436993881666,0.35353441775575356,30.35194890283341,76.36434100720244,1.5
60.1,0.2342893710650211,0.22714937668871443,0.06613779095514571,0.23057371614114644,0.11578002882487767,0.44092870665047307,30.35194913896091,76.36433994069321,1.5
60.2,-0.8586445953526934,-0.6497007552016778,2.8708697787281547,0.09408142118845003,0.23255578347110167,0.15423560693672175,30.351949375088417,76.364338874184,1.5
60.300000000000004,0.10081890497611065,-0.6567337452521863,0.23970529636738097,-0.3188396708587343,0.176102426555508,0.4696658397380989,30.351949611215918,76.36433780767477,1.5
60.400000000000006,-0.4644598372545985,-0.3441347975235126,-2.132168904979015,0.07217853510640523,-0.1684049734046591,0.573356872321004,30.35194984734342,76.36433674116556,1.5
60.5,0.3974979666365704,-0.08963252968676082,-1.7485368349306536,-0.046967928835213904,0.3963664143958393,0.6864537978714601,30.351950083470925,76.36433567465633,1.5
60.6,-0.899862255669755,0.12233378575932054,2.088124008758381,-0.3052882936570277,-0.05560373468745394,-0.4415826216404598,30.352028580410245,76.36432112089068,1.5
60.7,0.8650178559408149,-1.0441820694881754,2.441949848494821,-0.3267084300857386,-0.1929955760735111,-1.2322392945502847,30.352112968006214,76.36430555194521,1.5
60.800000000000004,-0.2693720361730414,-0.6647947351836752,-0.49204400731314474,-0.04677232284220176,0.2245704749223653,-0.7755119836079278,30.352197355602186,76.36428998299972,1.5
60.900000000000006,0.7618306321676204,-0.08946588166716264,-1.757698918844007,0.3491609676886339,0.09939410440756935,-0.11088664176994525,30.352281743198155,76.36427441405425,1.5
61.0,0.000533800591175651,0.08557374569229181,-1.0596157624882403,0.4445165148025329,-0.03101932282854941,-0.16830903596728636,30.352366130794124,76.36425884510878,1.5
61.1,0.503218494282058,0.4275706212304463,0.548686832149304,0.07647578958884403,0.0021140098905593624,0.14120254072491423,30.352450518390096,76.36424327616331,1.5
61.2,-1.2120553148064992,-0.772839543272281,0.588529699989323,0.5993648776459245,-0.7767842747860648,0.4253436262137328,30.352534905986065,76.36422770721782,1.5
61.300000000000004,-0.6693614112945365,-0.40152522312485905,-0.02369106276136934,-0.4575471936841668,0.00317044196879418,0.08260611045614352,30.352619293582038,76.36421213827235,1.5
61.400000000000006,-0.1394154428215609,-0.41705189299509243,-0.8960105659749682,0.07106485329989523,-0.12872356336229623,0.19686034648600712,30.352703681178006,76.36419656932688,1.5
61.5,-0.09492127126020086,-0.23711768101624947,-0.860909358427203,0.40805722989125287,0.07347056411154321,0.1627660551510527,30.352788068773975,76.36418100038141,1.5
61.6,-0.44474126037229467,-0.16443892532053223,1.5788125202825556,0.11976788052010805,-0.2148381628927502,-0.10554410965907776,30.352872456369948,76.36416543143592,1.5
61.7,1.2041024703498129,-0.8159527686898758,2.3213157328714957,-0.16398469552836797,-0.07512653080199795,-0.39835054778663204,30.352956843965917,76.36414986249045,1.5
61.800000000000004,0.9763195597722866,-0.224887611140822,-1.194770081644101,-0.3816356578356021,0.3353424100889449,-0.5433065961118247,30.35304123156189,76.36413429354498,1.5
61.900000000000006,0.8613470671564376,-0.1729255318435593,-1.3266979702865789,-0.1540443079771856,0.08647406248243243,-0.8744276214587703,30.353125619157858,76.3641187245995,1.5
62.0,-1.1136680301395099,-0.12141391330345408,-1.0485831998942023,-0.04059532601709159,0.22146066544237714,-0.5914977098376697,30.353210006753827,76.36410315565404,1.5
62.1,-0.921030823998735,0.007321621882042738,0.7011109913349893,0.14831469911570946,-0.08037621117057422,0.4571295998498189,30.3532943943498,76.36408758670855,1.5
62.2,0.8917377407324021,-0.4627610728897702,1.1690597834912855,0.18810834728094167,0.2751116156058967,0.6556752927173741,30.353378781945768,76.36407201776308,1.5
62.300000000000004,-0.34620279519153263,-1.0911585775600432,0.7254734537319503,-0.299432202577655,-0.19844480065550307,0.37710318145468325,30.35346316954174,76.3640564488176,1.5
62.400000000000006,0.16582021500510155,-0.8473834798361854,-0.8073679217906442,0.15159495742021697,-0.30831611565241596,0.5134928174571796,30.35354755713771,76.36404087987214,1.5
62.5,0.385848295145733,-0.19412894845643305,-1.8700678935230914,0.2775085644493277,0.16823596531146373,0.4371039694292603,30.35363194473368,76.36402531092665,1.5
62.6,0.30574623889089425,-0.5453223978165902,0.8810670426278098,0.3412405180033025,-0.11272080303695776,0.16245814183997803,30.35371633232965,76.36400974198118,1.5
62.7,0.29631772105678955,-0.35048154256685815,0.9681817784822799,0.15052776664079656,-0.2842393252347738,-0.12036992007992664,30.35380071992562,76.3639941730357,1.5
62.800000000000004,-0.12424292839531824,-0.5076548873813205,1.2492682656564973,-0.5640656888392394,0.09835445678375884,-0.46571349520479843,30.35388510752159,76.36397860409024,1.5
62.900000000000006,0.5263588540279412,0.0023098241383886498,-1.276870120031832,-0.06939288645064805,-0.012073421713981673,-0.22928927981209052,30.35396949511756,76.36396303514475,1.5
63.0,-0.213167509346356,0.5964886884452302,-1.7934965917890726,0.07018650685436328,0.0952610321388229,-0.25780306197526204,30.354053882713533,76.36394746619928,1.5
63.1,-0.6510682707049126,0.183594298777882,0.1976054058986184,0.12737810215517895,0.05910219667633243,-0.19828315185652817,30.3541382703095,76.3639318972538,1.5
63.2,0.605021036411655,-0.15728742366641102,0.7361059989655774,0.1837901200146375,0.07566404300738395,0.10173726934909888,30.35422265790547,76.36391632830833,1.5
63.300000000000004,-0.7484150267632592,-1.2133459132874054,1.7330179391728988,0.03587806187740969,-0.41575925527938107,0.15741997452635462,30.354307045501443,76.36390075936285,1.5
63.400000000000006,-0.5295316737102205,-1.5704349400685689,-0.1601185693118423,-0.10332322752080969,-0.33620604499115236,0.29544214295546034,30.354391433097412,76.36388519041738,1.5
63.5,-0.15824944227232046,-0.8053352594098605,-1.6431431107028247,-0.11217070211460653,0.2535099602613962,0.41489222564131384,30.354475820693384,76.3638696214719,1.5
63.6,0.3103292728660647,-0.6155334108412,0.4897211478267599,0.2655820797750296,-0.03147996478354962,0.400803235704697,30.354560208289353,76.36385405252643,1.5
63.7,-0.1596709772309739,0.48189963679756165,1.342177750554404,0.22141769830146774,-0.11675995825630595,0.10346766707092948,30.354644595885322,76.36383848358096,1.5
63.800000000000004,0.0660958752004317,-0.8028894012169921,1.8469192222067399,-0.22744753695335046,0.16510655866454554,-0.3479668355555452,30.354728983481294,76.36382291463548,1.5
63.900000000000006,2.109307680359904,0.3582685145364686,-1.0971052434731026,-0.21236697307781793,0.18655195333902064,-0.10034016895781614,30.354813371077263,76.36380734569,1.5
64.0,-0.34966204695454517,-0.027249163294244132,-1.6335607716611016,0.10846432451139143,-0.163396836363317,-0.5739878538796916,30.354897758673236,76.36379177674453,1.5
64.10000000000001,-0.39245218171854823,0.3010911675754304,-0.6649080453708145,0.17786708237123838,-0.025331056774665663,-0.36421857352094794,30.354982146269204,76.36377620779906,1.5
64.2,-0.6673064184219675,0.713110520125521,0.8254940244917464,0.04796076419307581,0.15328144007216166,-0.07368998891136665,30.355066533865173,76.36376063885358,1.5
64.3,0.44948312913441946,-0.6351553661172091,3.000222597268781,0.18749111379458025,0.19914825062325772,0.5198680168517281,30.355150921461146,76.3637450699081,1.5
64.4,0.25576025326270924,-0.6160231945181645,-0.1741586641099806,-0.34827906952375187,0.023144143213658402,0.34727965907031955,30.355235309057115,76.36372950096263,1.5
64.5,0.3297260031619036,-0.5421050666844623,-1.5990503896347055,0.09710747900953012,0.16450386273158504,0.4275541300469325,30.355319696653087,76.36371393201716,1.5
64.60000000000001,0.30225105815584696,-0.035825402393266724,0.1230610746028597,0.05431065489099335,-0.16125807505010795,0.4500236698611854,30.355404084249056,76.36369836307168,1.5
64.7,-0.42065369705287614,0.34380337156315044,1.0915611165395647,0.37151141994889014,-0.24105116189268933,0.1707310104637848,30.355488471845025,76.3636827941262,1.5
64.8,0.6924512391783086,-0.28553631994911377,0.8980519813272396,0.10045097522004487,-0.0054426635827015644,-0.2755426088567538,30.355572859440997,76.36366722518073,1.5
64.9,1.171411262407712,0.20717611782767853,-0.08727344675184759,-1.0543657290051425,0.5118700100180926,-0.8266679859164855,30.355657247036966,76.36365165623526,1.5
65.0,1.0795502271344923,0.3782516902946466,-1.4943734707674772,0.0345873703429536,0.16874504692523945,-0.2125580451130929,30.35574163463294,76.36363608728978,1.5
65.10000000000001,0.2797870292868755,0.5625360134680646,-1.842143110880413,0.2687410369266143,-0.028090277633158158,-0.22359095446178875,30.355826022228907,76.3636205183443,1.5
65.2,-0.8503547249236407,0.74158673331107,1.3825413296214406,-0.03819071683130622,-0.03718126019526983,-0.158911785150482,30.35591040982488,76.36360494939883,1.5
65.3,0.4839418394014119,1.095368991946625,1.4695596208554242,0.13074150987775926,0.27472924228073864,0.32403712151471165,30.35599479742085,76.36358938045336,1.5
65.4,-0.4869575450919501,0.2745712695681513,0.13827597079061182,-0.2865730324887927,-0.11404693251434167,0.16260893548728284,30.356079185016817,76.36357381150789,1.5
65.5,-0.1402312577723734,0.008228944113080366,-0.9830549438988366,0.024757538317423323,-0.5117591983895136,0.12616676064079263,30.35616357261279,76.3635582425624,1.5
65.60000000000001,0.02604605587489439,0.4361076946568181,-1.8968748060404297,0.1358220826059166,0.057782683345280306,0.15781419997713536,30.356214148830055,76.36354596697649,1.5
65.7,-0.20464086881085336,0.23244195501294596,0.07772590585878458,0.12267672569742698,-0.12458641956903972,-0.011215584799563819,30.356189467687646,76.36354102174957,1.5
65.8,0.5636099983492936,-0.1926143057315448,1.2550967549237058,0.062382248285193495,-0.3689777446409085,-0.2732745429090764,30.356164786545236,76.36353607652265,1.5
65.9,0.4144927274981556,-0.060770423110286576,1.378496098992311,-0.6345424071564623,-0.20525111280952643,-0.48294394616290826,30.356140105402826,76.36353113129573,1.5
66.0,0.7617626768018333,0.00856089299867716,-1.0124857015348718,0.14530943294373067,0.16355292166989638,-0.15010977604535822,30.356115424260416,76.36352618606882,1.5
66.10000000000001,0.5013135636784113,0.2179685305321283,-2.2091644897694196,0.024182069601346726,0.002430196282153232,-0.3284585568039576,30.356090743118006,76.3635212408419,1.5
66.2,0.19657794373734128,0.30035089349881444,-0.41681274147331115,0.28635191708964974,0.09566272075163941,-0.23244794014059952,30.356066061975596,76.36351629561499,1.5
66.3,-1.48311069807664,0.11191464098154806,0.3295343189695687,0.22344615470354787,0.12888005799142016,-0.3114914492876255,30.356041380833187,76.36351135038807,1.5
66.4,-1.0889437005944163,-0.9827381314234758,3.158430936450537,-0.2944989704351704,0.15834782390566118,0.5459807378690004,30.356016699690777,76.36350640516115,1.5
66.5,-0.16711401371536685,-0.20663985343685548,-0.6036221258727208,-0.1667788541982136,-0.041447014325205936,0.7745450696331793,30.355992018548367,76.36350145993423,1.5
66.60000000000001,-0.36859879465393636,-0.1419210408311051,-1.5788666419646782,-0.021960561911821896,-0.03932548097078152,0.540224405555683,30.355967337405957,76.36349651470732,1.5
66.7,-0.4484048599778622,-0.020224549214921318,-0.6707012788361112,0.29478122649594,-0.018359693819208982,0.29835418238155353,30.355942656263547,76.3634915694804,1.5
66.8,0.1651135502348413,0.476834924465467,0.9658876658977856,0.08465215851312592,-0.27689442998003577,0.11670065858647607,30.355917975121137,76.36348662425348,1.5
66.9,0.7078856201552143,-0.4992577949511038,1.2478882257519903,0.18516634778951416,-0.2202917850368804,-0.12802110052701687,30.355893293978728,76.36348167902656,1.5
67.0,0.5428633315613554,0.008547732042541892,0.3182599280278194,-1.0568416613619547,0.17407269911345355,-0.5528040456496162,30.355868612836318,76.36347673379964,1.5
67.10000000000001,0.5632886512128339,0.05463437246747055,-1.9446389454011124,0.05911585990836364,0.19724955875089878,-0.22407247555445656,30.355843931693908,76.36347178857272,1.5
67.2,0.4654195738595487,0.4630280156111045,-1.6140841920653846,0.2613197898393689,0.12072962207985752,-0.250313578141877,30.355819250551498,76.36346684334582,1.5
67.3,-0.7020118297615283,0.9821107114640044,1.310455581577281,0.04435250774299537,-0.1375846808968379,-0.13161072007662275,30.35579456940909,76.3634618981189,1.5
67.4,-0.46723412142468046,0.3534064788970491,1.7081580996089125,-0.062220696167239735,0.049242277357499004,0.11290643609564932,30.355769888266675,76.36345695289198,1.5
67.5,-0.17885380205555806,0.07367914318645791,-0.20414067121630322,-0.33271650787262214,0.2964202590202893,0.354799589537385,30.355745207124265,76.36345200766506,1.5
67.60000000000001,-0.30083791445501296,-0.22696234759761866,-0.5366667254371797,-0.14486810018246293,-0.0017327701508654814,0.28803584763490436,30.355720525981855,76.36344706243814,1.5
67.7,0.4069048435738007,0.4823276084708153,-1.6520660774826292,0.3451357928451516,-0.21930340506112403,0.3571515159083123,30.355695844839445,76.36344211721124,1.5
67.8,-0.29020547444645617,0.3001743262162596,0.9601943644038666,0.1565149727167358,-0.26271725841456606,0.14146745891071652,30.355671163697036,76.36343717198432,1.5
67.9,1.5454856450135885,0.2350903168065127,0.9876865683224159,0.1633463266468115,-0.058793173091594264,0.012144043055098502,30.355646482554626,76.3634322267574,1.5
68.0,0.4796267290654758,-0.4264001802037145,1.1892538576545462,-0.2602827594003613,-0.25872065208293066,-0.5315996284603068,30.355621801412216,76.36342728153048,1.5
68.10000000000001,1.04850886435042,-0.019904651510102345,-1.335104902350239,0.17450217485011454,0.09659465517485333,-0.23403165621372238,30.355597120269806,76.36342233630356,1.5
68.2,0.690858733378779,0.3917296221348228,-2.2474269332354146,0.06389032249848128,0.08760268109637198,-0.2837207759330575,30.355572439127396,76.36341739107664,1.5
68.3,0.1962013309071733,0.6464390183732143,-0.4101284585649997,0.23444605237874455,-0.0851252085381485,-0.23665517668812153,30.355547757984986,76.36341244584973,1.5
68.4,0.5634006432829819,0.4188092839933839,0.9535370941641572,0.2636672542296945,-0.1327895218900532,0.07420353866195498,30.355523076842577,76.36340750062281,1.5
68.5,-1.6236724653419978,-1.6797508831660992,2.9601657400860923,-0.3826255002098432,-0.048622283818611806,-0.1103859299714221,30.355498395700167,76.3634025553959,1.5
68.60000000000001,-0.19672163026728529,-0.6519837507171617,-1.2920459968001579,0.14275104773915628,0.3286906847381191,0.4288729514246719,30.355473714557757,76.36339761016897,1.5
68.7,-0.22495974789630568,-0.4333762898920869,-1.5630089969259051,-0.22506077449372022,0.015064476050667963,0.20772563362480373,30.355449033415347,76.36339266494205,1.5
68.8,-0.01753214546954933,-0.022646386969155066,0.5432094862047968,0.22811143654519317,-0.10101461161260825,0.22818521983530748,30.355424352272937,76.36338771971513,1.5
68.9,0.12537127585123803,0.3842887228810827,1.6824175927515232,0.21110957903546435,-0.12224760193965026,-0.019369667517137968,30.355399671130527,76.36338277448823,1.5
69.0,0.7700118697956873,-0.4485353966396801,1.6408936677020076,0.017089575963688784,0.10282803522169821,-0.207606695739099,30.355374989988118,76.36337782926131,1.5
69.10000000000001,1.4697590245325514,-0.1484749311445829,-1.3453272339648603,-0.23935625261514182,0.03368186452442859,-0.3809261893467295,30.355350308845708,76.36337288403439,1.5
69.2,0.5096603632604866,0.33562305407970516,-2.166953430772785,-0.14046414958687628,-0.03400899392406746,-0.29113160524030907,30.355325627703298,76.36336793880747,1.5
69.3,0.5373492577414072,0.6322139588287486,-0.8008738110524298,0.18769385511414696,-0.05912822185146982,-0.29222452630778,30.355300946560885,76.36336299358055,1.5
69.4,-0.8841423213624473,0.6301576062591439,1.6027479479001794,0.12758704969511403,-0.1851798563508948,-0.25116400820819285,30.355276265418475,76.36335804835365,1.5
69.5,-0.877354576533462,-0.7692429732050046,1.9470671022320865,-0.00954074511662388,0.35356970033114266,0.1651428506050183,30.355251584276065,76.36335310312673,1.5
69.60000000000001,-0.41214217353914856,0.09570045950356032,-0.19763219757627248,-0.0350138905233226,0.03529002797808012,0.44075239672722744,30.355226903133655,76.36334815789981,1.5
69.7,-0.3501542984568124,-0.7320382590927739,-0.8757029160324452,-0.08609256566549651,-0.12643581580951108,0.3406300720090228,30.355202221991245,76.36334321267289,1.5
69.8,-0.023652818359661106,-0.3488887253891945,-1.5435558639516542,0.2966465748854155,-0.029796072881506264,0.44675267329170826,30.355177540848835,76.36333826744597,1.5
69.9,0.05323523024722965,0.564585187272884,0.602247858605031,0.22848853220333326,-0.17339989033974262,0.24433265975672325,30.355152859706426,76.36333332221905,1.5
70.0,0.4788373875583,-0.3346149433078999,1.3843808361749799,-0.04008179137676782,-0.1745482056405437,-0.18486873590991726,30.355128178564016,76.36332837699214,1.5
70.10000000000001,0.41945388186630406,-0.3974021183725545,0.8425898627299897,-0.7002332876177237,0.14884741166528473,-0.63481390258835,30.355103497421606,76.36332343176522,1.5
70.2,0.6394343199410238,0.30881593057763035,-1.2459119124449431,-0.23389348729737958,0.1662263615707306,-0.12270682356240332,30.355078816279196,76.3633184865383,1.5
70.3,-0.4413761303189754,0.4761979026249508,-0.9992139300455604,0.02770920887179743,-0.045037645075983346,-0.23960078472328136,30.355054135136786,76.36331354131138,1.5
70.4,-0.95701507919232,0.21273782963729876,1.521174973265871,0.006356224066518819,0.058890160343489116,-0.12290503436687589,30.355029453994376,76.36330859608447,1.5
70.5,0.40576520905656643,0.7328721498040416,1.3089166270223551,0.34348998581697276,0.07501413739741855,0.5627341387349007,30.355004772851967,76.36330365085755,1.5
70.60000000000001,-0.6088866859980044,-0.9703236577300752,0.8632586626728512,-0.5627571650736688,-0.16856236089062204,0.11865229159434687,30.354980091709557,76.36329870563064,1.5
70.7,0.05610533353715663,-0.8472963986056511,-0.27905463779088363,0.05365854089264535,0.1304809032736235,0.3325189317986537,30.35495937862365,76.36329455550113,1.5
70.8,0.356405216049641,-0.6862383776187244,-1.5025666550804089,-0.07296488298333047,0.1874836572074712,0.11900438129344183,30.35495558191881,76.36329379498335,1.5
70.9,0.31060778241046594,-0.22898175215669064,0.13989317729262382,0.15932286225693987,-0.08854205136465143,0.12348130491331291,30.354951785213967,76.36329303446556,1.5
71.0,-0.13009051079500106,0.16411940740822908,0.8381115199326186,0.2618338469359771,-0.17439659332729446,-0.0140499006956815,30.354947988509124,76.36329227394778,1.5
71.10000000000001,0.7173834717618514,-0.4867779742869745,1.2149974359193143,0.15117448729382824,-0.261960418401182,-0.03375817988254658,30.354944191804282,76.36329151342999,1.5
71.2,0.9557405119369831,-0.3039144279166286,-0.4881606631175348,-0.3862752136522823,0.04719720922475638,-0.2920349237391333,30.35494039509944,76.3632907529122,1.5
71.3,0.22023631286973355,0.10415956396038953,-1.8505896931786054,-0.1624454629550965,0.03152646371376826,-0.41886863963442644,30.3549365983946,76.36328999239443,1.5
71.4,0.047114671298136124,0.17550443027581467,-0.07834105380241008,0.10565314701628045,0.13840337011720974,-0.2618063459319265,30.354932801689756,76.36328923187664,1.5
71.5,-0.20850693094284428,0.7845839016897649,0.32239714588500723,0.13803771451610225,0.09974508321555325,0.06926905820934673,30.354929004984918,76.36328847135886,1.5
71.60000000000001,0.30169198806844827,-0.6681175710629292,3.510743423161699,-0.11626590540905424,-0.26257216967837677,0.19911601042397134,30.354925208280076,76.36328771084106,1.5
