time,seconds_elapsed,z,y,x
1789729829511848200,0.19984814453125,0,0,0
1789729829521784600,0.20978466796875,0.018035411834716797,0.019609928131103516,0.0430372953414917
1789729829531721000,0.219720947265625,0.04892587661743164,0.06458187103271484,0.03868412971496582
1789729829541657900,0.229657958984375,0.032067298889160156,0.1488051414489746,-0.027240633964538574
1789729829551599900,0.239599853515625,-0.03968954086303711,0.16777896881103516,-0.08576011657714844
1789729829561546000,0.2495458984375,-0.10417604446411133,0.07436895370483398,-0.020628690719604492
1789729829571492000,0.2594921875,-0.05867576599121094,-0.00830984115600586,0.03676104545593262
1789729829581444000,0.269444091796875,-0.006102561950683594,0.01845264434814453,0.008217453956604004
1789729829591396400,0.279396240234375,-0.06462955474853516,0.10095691680908203,-0.02985382080078125
1789729829601357300,0.289357421875,-0.16526031494140625,0.13318395614624023,-0.00887298583984375
1789729829611318000,0.299318115234375,-0.21196413040161133,0.13892602920532227,0.010686516761779785
1789729829621279000,0.309279052734375,-0.18863868713378906,0.1646432876586914,-0.0042362213134765625
1789729829631241000,0.319240966796875,-0.18887042999267578,0.15609073638916016,-0.03282511234283447
1789729829641222000,0.329221923828125,-0.17531633377075195,0.11998510360717773,-0.069862961769104
1789729829651203600,0.33920361328125,-0.07578611373901367,0.10129880905151367,-0.11539888381958008
1789729829661200400,0.349200439453125,-0.01419830322265625,0.08386468887329102,-0.1476883888244629
1789729829671215000,0.359215087890625,-0.03622913360595703,0.008098602294921875,-0.15150177478790283
1789729829681234400,0.369234375,-0.0331268310546875,-0.055350303649902344,-0.16608905792236328
1789729829691275300,0.379275146484375,0.02102947235107422,-0.09385538101196289,-0.1866588592529297
1789729829701316600,0.389316650390625,0.09168291091918945,-0.0855555534362793,-0.20468437671661377
1789729829711364000,0.399364013671875,0.2014460563659668,-0.060277462005615234,-0.19263815879821777
1789729829721411600,0.40941162109375,0.2717409133911133,-0.04671144485473633,-0.17368638515472412
1789729829731217000,0.419216796875,0.30017852783203125,-0.06291770935058594,-0.16126585006713867
1789729829741031200,0.42903125,0.3437986373901367,-0.08506584167480469,-0.19534075260162354
1789729829750850600,0.4388505859375,0.3279085159301758,-0.09434747695922852,-0.2262629270553589
1789729829760673300,0.44867333984375,0.2260117530822754,-0.08119630813598633,-0.2627142071723938
1789729829770498800,0.458498779296875,0.09996604919433594,-0.026922225952148438,-0.31441551446914673
1789729829780326700,0.46832666015625,0.009695053100585938,0.02169942855834961,-0.3678991198539734
1789729829790179800,0.478179931640625,-0.03248405456542969,0.00052642822265625,-0.35515058040618896
1789729829800033500,0.488033447265625,-0.06494617462158203,-0.037383079528808594,-0.30278611183166504
1789729829809888300,0.49788818359375,-0.036459922790527344,-0.03643035888671875,-0.2960391640663147
1789729829819759000,0.507759033203125,0.042685508728027344,-0.01706695556640625,-0.3110485076904297
1789729829829630200,0.517630126953125,0.13037919998168945,-0.045836448669433594,-0.2870113253593445
1789729829839504000,0.52750390625,0.19017267227172852,-0.05713033676147461,-0.2804262042045593
1789729829849380600,0.537380615234375,0.19521617889404297,-0.07961368560791016,-0.2718042731285095
1789729829859265000,0.54726513671875,0.1793208122253418,-0.09413337707519531,-0.2654784321784973
1789729829869149700,0.557149658203125,0.15193891525268555,-0.05402231216430664,-0.27000564336776733
1789729829879036000,0.567035888671875,0.06570863723754883,-0.0018854141235351562,-0.2606079578399658
1789729829888926500,0.576926513671875,-0.03267097473144531,-0.006739616394042969,-0.19536757469177246
1789729829898816800,0.586816650390625,-0.12111711502075195,-0.047183990478515625,-0.1220541000366211
1789729829908710100,0.596710205078125,-0.15864038467407227,-0.028255939483642578,-0.11094468832015991
1789729829926678800,0.6146787109375,0.02834033966064453,0.06001138687133789,-0.061214327812194824
1789729829936615000,0.624614990234375,0.18335914611816406,0.008842945098876953,0.025996387004852295
1789729829946552000,0.634552001953125,0.29157304763793945,-0.004879951477050781,0.0730714201927185
1789729829956488200,0.64448828125,0.31964969635009766,-0.01073455810546875,0.07614737749099731
1789729829966421000,0.6544208984375,0.31173133850097656,0.00742340087890625,0.06823146343231201
1789729829976354800,0.664354736328125,0.3106403350830078,0.030457496643066406,0.06607741117477417
1789729829986289400,0.674289306640625,0.3536343574523926,0.04904317855834961,0.06954687833786011
1789729829996225500,0.6842255859375,0.3273167610168457,-0.007311820983886719,0.13762319087982178
1789729830006163000,0.694162841796875,0.26070213317871094,-0.05701160430908203,0.15511304140090942
1789729830016101600,0.7041015625,0.17969083786010742,-0.029117107391357422,0.1112019419670105
1789729830026040800,0.714040771484375,0.06701803207397461,-0.0320892333984375,0.055176377296447754
1789729830035980300,0.723980224609375,-0.03986644744873047,-0.10456657409667969,0.035398125648498535
1789729830045915400,0.733915283203125,-0.08530664443969727,-0.12479782104492188,0.001423180103302002
1789729830055850800,0.743850830078125,-0.10798501968383789,-0.10788393020629883,0.0024515390396118164
1789729830065786000,0.7537861328125,-0.0088958740234375,-0.038518428802490234,0.012020885944366455
1789729830075722200,0.76372216796875,0.18565893173217773,0.05026435852050781,0.05911833047866821
1789729830085658400,0.773658447265625,0.26662254333496094,0.022085189819335938,0.14845770597457886
1789729830095595300,0.78359521484375,0.26724910736083984,-0.020458698272705078,0.22778308391571045
1789729830105532700,0.79353271484375,0.22640180587768555,0.04788780212402344,0.2566445469856262
1789729830115470800,0.803470947265625,0.12270927429199219,0.1200861930847168,0.26168859004974365
1789729830125407700,0.81340771484375,0.041098594665527344,0.1804523468017578,0.2596051096916199
1789729830137844000,0.825843994140625,0.04123258590698242,0.32041311264038086,0.25093138217926025
1789729830147780600,0.835780517578125,0.09241771697998047,0.30298757553100586,0.26665544509887695
1789729830157717000,0.845717041015625,0.17255830764770508,0.35053586959838867,0.26429903507232666
1789729830167653400,0.8556533203125,0.32936716079711914,0.362185001373291,0.24862980842590332
1789729830177589800,0.86558984375,0.5775141716003418,0.31827497482299805,0.2381734848022461
1789729830187529200,0.875529296875,0.7814288139343262,0.22706890106201172,0.2472345232963562
1789729830197468700,0.88546875,0.8159275054931641,0.1496119499206543,0.26220738887786865
1789729830207426300,0.89542626953125,0.659421443939209,0.10075044631958008,0.24985355138778687
1789729830217387000,0.905386962890625,0.43529319763183594,0.11510848999023438,0.2338085174560547
1789729830227373300,0.915373291015625,0.26042890548706055,0.1510753631591797,0.19952142238616943
1789729830237363200,0.92536328125,0.16030359268188477,0.1533827781677246,0.15702122449874878
1789729830247355400,0.93535546875,0.1656355857849121,0.12804031372070312,0.12140852212905884
1789729830257350400,0.945350341796875,0.24674463272094727,0.14111661911010742,0.046453893184661865
1789729830267347000,0.955346923828125,0.36551427841186523,0.13960742950439453,-0.0018120408058166504
1789729830277343500,0.965343505859375,0.3951249122619629,0.005351066589355469,0.06497704982757568
1789729830287340000,0.975340087890625,0.3505244255065918,-0.10830402374267578,0.14790302515029907
1789729830297353500,0.985353515625,0.21719980239868164,-0.0969686508178711,0.172654390335083
1789729830309339000,0.9973388671875,-0.16311120986938477,0.028428077697753906,0.06759506464004517
1789729830319149800,1.00714990234375,-0.23086977005004883,0.06719017028808594,0.03489631414413452
1789729830328973000,1.01697314453125,-0.17673492431640625,0.065521240234375,0.03232020139694214
1789729830338825500,1.026825439453125,-0.010027885437011719,-0.008088111877441406,0.035777270793914795
1789729830348701200,1.036701171875,0.20955562591552734,-0.1146688461303711,-0.016956686973571777
1789729830358603500,1.046603515625,0.3908658027648926,-0.20200157165527344,-0.14946894347667694
1789729830368535600,1.05653564453125,0.5087680816650391,-0.26479339599609375,-0.28680330514907837
1789729830378516500,1.0665166015625,0.4976162910461426,-0.3460350036621094,-0.33017927408218384
1789729830388529200,1.076529052734375,0.4049191474914551,-0.4197092056274414,-0.3497317433357239
1789729830398559700,1.086559814453125,0.31510257720947266,-0.4705324172973633,-0.38348013162612915
1789729830408596200,1.09659619140625,0.2221055030822754,-0.47425079345703125,-0.38294607400894165
1789729830418532900,1.106532958984375,0.13788604736328125,-0.4584226608276367,-0.3678719997406006
1789729830428469200,1.11646923828125,0.12139081954956055,-0.408935546875,-0.34326857328414917
1789729830438405600,1.126405517578125,0.11318683624267578,-0.24825096130371094,-0.362360417842865
1789729830448342000,1.136342041015625,0.058449745178222656,-0.08165264129638672,-0.35633373260498047
1789729830458278400,1.1462783203125,-0.007803916931152344,-0.012909889221191406,-0.30051344633102417
1789729830468214800,1.15621484375,-0.04561662673950195,0.05403709411621094,-0.26835477352142334
1789729830478151400,1.1661513671875,0.029838085174560547,0.11692333221435547,-0.256195068359375
1789729830488087800,1.176087890625,0.1783428192138672,0.06606864929199219,-0.25676432251930237
1789729830498024700,1.186024658203125,0.27528810501098633,-0.022400856018066406,-0.2430511713027954
1789729830507960300,1.195960205078125,0.23370075225830078,-0.10313796997070312,-0.2624847888946533
1789729830517896700,1.205896728515625,0.15140724182128906,-0.1829366683959961,-0.2682883143424988
1789729830527833600,1.21583349609375,0.008678436279296875,-0.21856117248535156,-0.21997320652008057
1789729830537770000,1.22577001953125,-0.1623058319091797,-0.19785594940185547,-0.19312576949596405
1789729830547706600,1.23570654296875,-0.2776916027069092,-0.13721942901611328,-0.20229920744895935
1789729830557643000,1.24564306640625,-0.23536348342895508,-0.10620498657226562,-0.25049903988838196
1789729830567579400,1.255579345703125,-0.20188021659851074,-0.15964412689208984,-0.29343265295028687
1789729830577515800,1.265515869140625,-0.23070001602172852,-0.22841453552246094,-0.36892247200012207
1789729830587452200,1.2754521484375,-0.29513001441955566,-0.25546836853027344,-0.4559169113636017
1789729830597388800,1.285388916015625,-0.37117791175842285,-0.2578239440917969,-0.49369367957115173
1789729830607325200,1.2953251953125,-0.5234315395355225,-0.29961395263671875,-0.45954856276512146
1789729830617261600,1.305261474609375,-0.6909949779510498,-0.33722877502441406,-0.4890555739402771
1789729830627198000,1.315197998046875,-0.7889792919158936,-0.29691219329833984,-0.5481193661689758
1789729830637134300,1.32513427734375,-0.8540835380554199,-0.30272960662841797,-0.5583595037460327
1789729830647070700,1.33507080078125,-0.8782446384429932,-0.3800668716430664,-0.48842117190361023
1789729830657006800,1.3450068359375,-0.8523530960083008,-0.43813419342041016,-0.4587911367416382
1789729830666943200,1.354943115234375,-0.8001871109008789,-0.4796915054321289,-0.49933260679244995
1789729830676879600,1.364879638671875,-0.733302116394043,-0.5217733383178711,-0.5317028760910034
1789729830686816000,1.37481591796875,-0.7153642177581787,-0.562251091003418,-0.5057133436203003
1789729830696752400,1.38475244140625,-0.7411906719207764,-0.5892963409423828,-0.46563583612442017
1789729830706689300,1.394689208984375,-0.7659142017364502,-0.6479949951171875,-0.44353216886520386
1789729830716626200,1.404626220703125,-0.7403757572174072,-0.6927900314331055,-0.43411290645599365
1789729830726562600,1.4145625,-0.724346399307251,-0.7096138000488281,-0.41105327010154724
1789729830736499000,1.4244990234375,-0.7610657215118408,-0.7152214050292969,-0.35328951478004456
1789729830746435300,1.434435302734375,-0.8053586483001709,-0.6882410049438477,-0.2964898347854614
1789729830756371700,1.444371826171875,-0.814133882522583,-0.6528120040893555,-0.28842592239379883
1789729830766308000,1.45430810546875,-0.8085336685180664,-0.6424579620361328,-0.2604544162750244
1789729830776244500,1.464244384765625,-0.7430217266082764,-0.6357517242431641,-0.25133511424064636
1789729830786180900,1.474180908203125,-0.5975985527038574,-0.6093244552612305,-0.21858850121498108
1789729830796117200,1.4841171875,-0.4971494674682617,-0.5543136596679688,-0.17693114280700684
1789729830806053400,1.494053466796875,-0.45979833602905273,-0.504364013671875,-0.12653839588165283
1789729830815989800,1.50398974609375,-0.3974120616912842,-0.42130279541015625,-0.09847897291183472
1789729830825926100,1.513926025390625,-0.28069138526916504,-0.30564403533935547,-0.05696114897727966
1789729830835862500,1.523862548828125,-0.24741888046264648,-0.22908687591552734,0.036774296313524246
1789729830845799000,1.533798828125,-0.2623481750488281,-0.22193622589111328,0.11020991206169128
1789729830855735300,1.5437353515625,-0.2713770866394043,-0.17165088653564453,0.11672108620405197
1789729830865671700,1.553671630859375,-0.2848498821258545,-0.11398124694824219,0.10935454070568085
1789729830875608000,1.563608154296875,-0.30446600914001465,-0.09602928161621094,0.0883958712220192
1789729830885544400,1.57354443359375,-0.22409892082214355,-0.09343719482421875,0.08268550038337708
1789729830895481000,1.583481201171875,-0.051178932189941406,-0.1490020751953125,0.12776203453540802
1789729830905417500,1.59341748046875,0.11799168586730957,-0.23428821563720703,0.13290002942085266
1789729830915353900,1.603353759765625,0.24264144897460938,-0.26879405975341797,0.09305083006620407
1789729830925290200,1.613290283203125,0.32999110221862793,-0.2463846206665039,0.02132987231016159
1789729830935227000,1.623226806640625,0.32931041717529297,-0.25827598571777344,-0.043009817600250244
1789729830945163300,1.633163330078125,0.2682011127471924,-0.23552799224853516,-0.05590716749429703
1789729830955099600,1.643099609375,0.14936184883117676,-0.17600536346435547,-0.023082293570041656
1789729830965036300,1.653036376953125,0.02001500129699707,-0.0821237564086914,0.02882368117570877
1789729830974972700,1.66297265625,-0.03977203369140625,0.027129173278808594,0.02438267320394516
1789729830984909000,1.672908935546875,-0.019079923629760742,0.11612987518310547,0.0144696906208992
1789729830994845400,1.682845458984375,0.01018977165222168,0.11600780487060547,0.058869704604148865
1789729831004782800,1.692782958984375,-0.040929317474365234,0.07045364379882812,0.08586492389440536
1789729831014719500,1.702719482421875,-0.08399152755737305,0.05564689636230469,0.016576990485191345
1789729831024656000,1.71265576171875,-0.07979249954223633,0.08127784729003906,-0.06993037462234497
1789729831034592300,1.72259228515625,-0.055120229721069336,0.03126239776611328,-0.05425746738910675
1789729831044528600,1.732528564453125,-0.05251169204711914,-0.036658287048339844,-0.0010226070880889893
1789729831054465000,1.742465087890625,-0.017334938049316406,-0.009136199951171875,0.0095929354429245
1789729831064401400,1.7524013671875,0.006035804748535156,0.050708770751953125,-0.014485269784927368
1789729831074337800,1.762337890625,0.008756160736083984,0.07625961303710938,-0.03299547731876373
1789729831084274200,1.772274169921875,0.04326438903808594,0.1009817123413086,-0.06268250942230225
1789729831094210600,1.78221044921875,0.09287548065185547,0.12950420379638672,-0.07493974268436432
1789729831104146700,1.792146728515625,0.15067672729492188,0.12866878509521484,-0.03904866427183151
1789729831114083000,1.8020830078125,0.20709490776062012,0.0966329574584961,0.06183096021413803
1789729831124019500,1.81201953125,0.22205162048339844,0.11168670654296875,0.1384638398885727
1789729831133955800,1.821955810546875,0.17412495613098145,0.1309375762939453,0.19030055403709412
1789729831143892200,1.831892333984375,0.13071036338806152,0.17141437530517578,0.2063596248626709
1789729831153828600,1.84182861328125,0.14272284507751465,0.12936878204345703,0.2113446295261383
1789729831163765000,1.851764892578125,0.15251636505126953,0.0109405517578125,0.18692418932914734
1789729831173701400,1.861701416015625,0.1576688289642334,-0.11662101745605469,0.12570032477378845
1789729831183638000,1.871637939453125,0.1822490692138672,-0.1708545684814453,0.04124835506081581
1789729831193574400,1.881574462890625,0.17749595642089844,-0.19806385040283203,-0.010602287948131561
1789729831203510800,1.8915107421875,0.1465928554534912,-0.2317829132080078,-0.042792074382305145
1789729831213447400,1.901447509765625,0.12637615203857422,-0.23219680786132812,-0.06812053918838501
1789729831223383800,1.9113837890625,0.07298469543457031,-0.1978435516357422,-0.07733593881130219
1789729831233320200,1.9213203125,-0.029337644577026367,-0.1670513153076172,-0.05225057899951935
1789729831243256800,1.9312568359375,-0.11899304389953613,-0.12077140808105469,-0.04489772021770477
1789729831253193200,1.941193115234375,-0.17293524742126465,-0.04738330841064453,-0.05948680639266968
1789729831263129600,1.951129638671875,-0.23237919807434082,0.008086204528808594,-0.059965476393699646
1789729831273066000,1.96106591796875,-0.2536463737487793,0.04865837097167969,-0.07723907381296158
1789729831283002600,1.971002685546875,-0.24001169204711914,0.07938003540039062,-0.09181826561689377
1789729831292939000,1.98093896484375,-0.251476526260376,0.11942672729492188,-0.0658629834651947
1789729831302875400,1.99087548828125,-0.27889323234558105,0.13117027282714844,-0.04141593724489212
1789729831312812000,2.00081201171875,-0.22360801696777344,0.14116191864013672,-0.06063993275165558
1789729831322748400,2.01074853515625,-0.1337110996246338,0.10455036163330078,-0.052495792508125305
1789729831332684800,2.020684814453125,-0.07999682426452637,0.040821075439453125,-0.010452352464199066
1789729831342621200,2.03062109375,-0.08062314987182617,0.014006614685058594,0.0015042871236801147
1789729831352557800,2.040557861328125,-0.05211043357849121,0.021099090576171875,-0.009402483701705933
1789729831362494200,2.050494140625,-0.02766728401184082,-0.02334117889404297,0.0017864108085632324
1789729831372430600,2.0604306640625,0.009386539459228516,-0.1349782943725586,-0.0077930837869644165
1789729831382367200,2.0703671875,0.05488753318786621,-0.22576904296875,-0.04747769236564636
1789729831392303600,2.0803037109375,0.10698485374450684,-0.26094627380371094,-0.09906262159347534
1789729831402240000,2.090239990234375,0.1544651985168457,-0.3146829605102539,-0.12531961500644684
1789729831412176400,2.10017626953125,0.19528722763061523,-0.36556053161621094,-0.13170677423477173
1789729831422113000,2.110113037109375,0.23746466636657715,-0.37857532501220703,-0.15681153535842896
1789729831432049400,2.12004931640625,0.23215818405151367,-0.3710765838623047,-0.15370233356952667
1789729831441985800,2.12998583984375,0.16420245170593262,-0.34829235076904297,-0.17221197485923767
1789729831451922400,2.13992236328125,0.07942819595336914,-0.2657461166381836,-0.1769912987947464
1789729831461858800,2.14985888671875,-0.019835710525512695,-0.15731048583984375,-0.1755712479352951
1789729831471795200,2.159795166015625,-0.10082364082336426,-0.060939788818359375,-0.16511951386928558
1789729831481731600,2.169731689453125,-0.16020536422729492,0.0074462890625,-0.12653377652168274
1789729831491668200,2.179668212890625,-0.20913195610046387,0.0652608871459961,-0.054935649037361145
1789729831501604600,2.1896044921875,-0.24397730827331543,0.11535072326660156,0.005614414811134338
1789729831511541000,2.199541015625,-0.25708794593811035,0.15598297119140625,0.07764212787151337
1789729831521477600,2.2094775390625,-0.2684969902038574,0.156951904296875,0.07929814606904984
1789729831531414000,2.2194140625,-0.24252891540527344,0.15647411346435547,-0.01192108541727066
1789729831541350400,2.229350341796875,-0.11491250991821289,0.15651226043701172,-0.07968935370445251
1789729831551287000,2.239287109375,-0.005129098892211914,0.12099170684814453,-0.04429473727941513
1789729831561223400,2.249223388671875,0.002675771713256836,0.059821128845214844,0.06752024590969086
1789729831571159800,2.259159912109375,0.017732620239257812,0.04670429229736328,0.12537869811058044
1789729831581096200,2.26909619140625,-0.0429532527923584,0.11630630493164062,0.13549867272377014
1789729831591032800,2.27903271484375,-0.17541098594665527,0.15479755401611328,0.138738214969635
1789729831600969200,2.28896923828125,-0.22484040260314941,0.1444234848022461,0.10664854943752289
1789729831610905600,2.298905517578125,-0.2343454360961914,0.13290119171142578,0.05844401568174362
1789729831620842200,2.30884228515625,-0.23031139373779297,0.07779312133789062,0.019012227654457092
1789729831630778600,2.318778564453125,-0.15079879760742188,0.02665233612060547,-0.01779910922050476
1789729831640715000,2.328715087890625,-0.05415463447570801,0.009480476379394531,-0.04529021680355072
1789729831650652400,2.33865234375,0.05406665802001953,0.003949165344238281,-0.03509923070669174
1789729831660588800,2.3485888671875,0.05461001396179199,-0.006962776184082031,-0.01987089216709137
1789729831670525200,2.358525146484375,-0.006468057632446289,-0.03950786590576172,-0.013766683638095856
1789729831680461800,2.3684619140625,-0.07282614707946777,-0.055255889892578125,-0.03587697446346283
1789729831690397400,2.3783974609375,-0.08389830589294434,-0.06366634368896484,-0.036224402487277985
1789729831700333300,2.388333251953125,-0.08803868293762207,-0.0647592544555664,-0.04822862893342972
1789729831710269700,2.398269775390625,-0.116180419921875,-0.02326202392578125,-0.0722041204571724
1789729831720206300,2.408206298828125,-0.17072772979736328,0.01785755157470703,-0.04205381125211716
1789729831730143200,2.418143310546875,-0.19534707069396973,0.011708259582519531,-0.0008417218923568726
1789729831740080600,2.42808056640625,-0.15270757675170898,0.010854721069335938,0.011288382112979889
1789729831750017000,2.43801708984375,-0.06907343864440918,0.0031900405883789062,0.013588033616542816
1789729831759953400,2.447953369140625,0.02306056022644043,-0.009190559387207031,0.02069856971502304
1789729831769890300,2.457890380859375,0.11727786064147949,-0.019395828247070312,0.009629301726818085
1789729831779826000,2.467825927734375,0.16682910919189453,-0.048793792724609375,-0.014513082802295685
1789729831789761300,2.47776123046875,0.177215576171875,-0.07824325561523438,-0.06107484549283981
1789729831799697200,2.487697265625,0.12293219566345215,-0.07469749450683594,-0.09060074388980865
1789729831809633300,2.49763330078125,0.04677224159240723,-0.07853507995605469,-0.08968987315893173
1789729831819569700,2.507569580078125,-0.032878875732421875,-0.049317359924316406,-0.08256560564041138
1789729831829506300,2.51750634765625,-0.09799718856811523,-0.017928123474121094,-0.06249085068702698
1789729831839443200,2.527443115234375,-0.11864471435546875,0.011031150817871094,-0.03441058099269867
1789729831849380400,2.53738037109375,-0.08642196655273438,0.030640602111816406,0.023174941539764404
1789729831859317200,2.547317138671875,-0.05825328826904297,0.04090404510498047,0.08932868391275406
1789729831869254400,2.55725439453125,-0.03190326690673828,0.037346839904785156,0.129280224442482
1789729831879190800,2.567190673828125,0.023781299591064453,0.0435943603515625,0.14150162041187286
1789729831889127400,2.57712744140625,0.06902098655700684,0.061593055725097656,0.1480930745601654
1789729831899063800,2.587063720703125,0.005353689193725586,0.043946266174316406,0.1850740909576416
1789729831909000200,2.597000244140625,-0.11003804206848145,0.029344558715820312,0.1698911190032959
1789729831918936800,2.606936767578125,-0.18987226486206055,0.08159160614013672,0.10968172550201416
1789729831928874500,2.61687451171875,-0.1949007511138916,0.11483573913574219,0.04648236930370331
1789729831938808300,2.626808349609375,-0.1611328125,0.06558895111083984,0.016985177993774414
1789729831948742700,2.63674267578125,-0.07665276527404785,-0.015590667724609375,0.008091464638710022
1789729831958677200,2.64667724609375,0.018927335739135742,-0.08153057098388672,-0.014405518770217896
1789729831968612900,2.65661279296875,0.10531306266784668,-0.11874866485595703,-0.01520189642906189
1789729831978549500,2.666549560546875,0.17342519760131836,-0.1254558563232422,-0.018234744668006897
1789729831988486700,2.676486572265625,0.235792875289917,-0.11174869537353516,-0.032581642270088196
1789729831998424600,2.686424560546875,0.26467299461364746,-0.11345672607421875,-0.04560624063014984
1789729832008363300,2.69636328125,0.23222947120666504,-0.14676666259765625,-0.021487653255462646
1789729832018301200,2.70630126953125,0.18086791038513184,-0.14482402801513672,0.004160478711128235
1789729832028237800,2.71623779296875,0.1339402198791504,-0.10331249237060547,-0.017598435282707214
1789729832038174200,2.72617431640625,0.06964397430419922,-0.053322792053222656,-0.05796150863170624
1789729832048110600,2.736110595703125,-0.0032291412353515625,-0.030010223388671875,-0.07947306334972382
1789729832058047000,2.746046875,-0.06415271759033203,-0.01849842071533203,-0.08043494820594788
1789729832067983600,2.755983642578125,-0.04772329330444336,-0.020822525024414062,-0.07568717002868652
1789729832077919700,2.765919677734375,0.052541494369506836,-0.04172325134277344,-0.058279141783714294
1789729832087856400,2.7758564453125,0.13775944709777832,-0.06257343292236328,-0.03526704013347626
1789729832097793000,2.78579296875,0.192216157913208,-0.078857421875,-0.04451613128185272
1789729832107729400,2.7957294921875,0.26208972930908203,-0.04387950897216797,-0.06432494521141052
1789729832117665800,2.805665771484375,0.24662423133850098,-0.03180408477783203,-0.05866321921348572
1789729832127602200,2.815602294921875,0.12521910667419434,0.014603614807128906,-0.03670381009578705
1789729832137538800,2.825538818359375,-0.0011432170867919922,0.10026264190673828,-0.012559056282043457
1789729832147475200,2.83547509765625,-0.07034111022949219,0.14501953125,0.0022827833890914917
1789729832157412000,2.845412109375,-0.045960426330566406,0.1426076889038086,0.005637332797050476
1789729832167347700,2.85534765625,-0.02787470817565918,0.12420177459716797,0.014097042381763458
1789729832177283300,2.865283447265625,0.005488157272338867,0.1135101318359375,0.0007741302251815796
1789729832187219200,2.87521923828125,0.08750438690185547,0.08423995971679688,0.009990669786930084
1789729832197155000,2.885155029296875,0.14304327964782715,0.05280017852783203,0.04352223128080368
1789729832207091500,2.895091552734375,0.16817474365234375,0.03324317932128906,0.08496212959289551
1789729832217028000,2.905028076171875,0.20604610443115234,0.04413127899169922,0.11338949203491211
1789729832226965000,2.914965087890625,0.2290503978729248,0.03752708435058594,0.15120334923267365
1789729832236902100,2.924902099609375,0.18802118301391602,0.03255176544189453,0.20152626931667328
1789729832246839600,2.934839599609375,0.1186830997467041,0.05769634246826172,0.19877412915229797
1789729832256776200,2.944776123046875,0.06342744827270508,0.11263465881347656,0.15051192045211792
1789729832266712000,2.954712158203125,0.014429807662963867,0.116973876953125,0.132552370429039
1789729832276647700,2.964647705078125,-0.07153058052062988,0.10009002685546875,0.13021935522556305
1789729832286583800,2.974583740234375,-0.16196060180664062,0.11220741271972656,0.11933010816574097
1789729832296520400,2.9845205078125,-0.2080855369567871,0.1272125244140625,0.12553100287914276
1789729832306457000,2.99445703125,-0.21338415145874023,0.1310558319091797,0.15555325150489807
1789729832316394000,3.00439404296875,-0.16887378692626953,0.12383270263671875,0.15968485176563263
1789729832326331400,3.014331298828125,-0.022508621215820312,0.09120368957519531,0.1597026288509369
1789729832336268500,3.0242685546875,0.12699270248413086,-0.004803657531738281,0.1611046940088272
1789729832346204000,3.034203857421875,0.21062755584716797,-0.08131790161132812,0.14335690438747406
1789729832356139300,3.04413916015625,0.18742728233337402,-0.09402942657470703,0.0851697325706482
1789729832366075000,3.054074951171875,0.0887453556060791,-0.1001424789428711,0.014471329748630524
1789729832376010800,3.0640107421875,-0.005408763885498047,-0.06629276275634766,-0.04393699765205383
1789729832385948200,3.0739482421875,-0.11010479927062988,-0.004604339599609375,-0.055590786039829254
1789729832395885600,3.083885498046875,-0.20501947402954102,0.07070255279541016,-0.049571871757507324
1789729832405823000,3.093822998046875,-0.2721884250640869,0.10548114776611328,-0.040042899549007416
1789729832415759600,3.103759521484375,-0.24184083938598633,0.10291481018066406,-0.04810122400522232
1789729832425696000,3.113696044921875,-0.15978217124938965,0.09874439239501953,-0.07821035385131836
1789729832435632400,3.12363232421875,-0.05870199203491211,0.1020040512084961,-0.0756310448050499
1789729832445569000,3.133569091796875,0.045554161071777344,0.0816030502319336,-0.06883212924003601
1789729832455505400,3.14350537109375,0.17975568771362305,0.025827407836914062,-0.05953973904252052
1789729832465441300,3.153441162109375,0.29031944274902344,-0.03922080993652344,-0.02286449447274208
1789729832475377000,3.163376953125,0.28388547897338867,-0.10884857177734375,0.030161317437887192
1789729832485313000,3.17331298828125,0.20653748512268066,-0.07440185546875,-0.006087303161621094
1789729832495249200,3.183249267578125,0.11254334449768066,0.04630088806152344,-0.08650340139865875
1789729832505185500,3.193185546875,0.022095918655395508,0.03793811798095703,-0.07725206762552261
1789729832515122200,3.2031220703125,-0.06034445762634277,0.01815509796142578,-0.06412848830223083
1789729832525059000,3.21305908203125,-0.165574312210083,0.07431602478027344,-0.06634505838155746
1789729832534996000,3.222995849609375,-0.27990007400512695,0.16775989532470703,-0.05606171488761902
1789729832544932900,3.232932861328125,-0.31641435623168945,0.1778736114501953,-0.014324989169836044
1789729832554870000,3.2428701171875,-0.29988956451416016,0.1295785903930664,0.00974704697728157
1789729832564806400,3.252806396484375,-0.3017871379852295,0.07564830780029297,-0.00881679356098175
1789729832574742500,3.262742431640625,-0.29911255836486816,0.01177978515625,-0.05799521505832672
1789729832584679000,3.272678955078125,-0.2402045726776123,-0.10659122467041016,-0.10066762566566467
1789729832594615000,3.282614990234375,-0.19637322425842285,-0.25745105743408203,-0.09291104972362518
1789729832604551200,3.29255126953125,-0.23362016677856445,-0.36950111389160156,-0.10967838764190674
1789729832614487600,3.302487548828125,-0.2421581745147705,-0.4293041229248047,-0.14485210180282593
1789729832624424000,3.312423828125,-0.23369383811950684,-0.45208740234375,-0.17821018397808075
1789729832634360800,3.32236083984375,-0.25025320053100586,-0.48819732666015625,-0.21772202849388123
1789729832644298200,3.33229833984375,-0.24843168258666992,-0.5023326873779297,-0.23430320620536804
1789729832654234600,3.342234619140625,-0.2634751796722412,-0.48561763763427734,-0.2106538563966751
1789729832664169700,3.352169677734375,-0.23340892791748047,-0.4410896301269531,-0.17609111964702606
1789729832674105000,3.36210498046875,-0.1628274917602539,-0.3694934844970703,-0.10204862058162689
1789729832684040700,3.372040771484375,-0.08714604377746582,-0.2832212448120117,-0.04694788157939911
1789729832693976800,3.381976806640625,0.03425335884094238,-0.22274208068847656,0.02853323519229889
1789729832703913500,3.39191357421875,0.14980602264404297,-0.17851924896240234,0.11703501641750336
1789729832713850400,3.401850341796875,0.18195676803588867,-0.10080337524414062,0.13818436861038208
1789729832723787800,3.411787841796875,0.16900897026062012,0.04310321807861328,0.0988074243068695
1789729832733725200,3.42172509765625,0.16501879692077637,0.2029409408569336,0.051680777221918106
1789729832743663400,3.431663330078125,0.11285686492919922,0.33383655548095703,0.077461838722229
1789729832753599000,3.441598876953125,0.038323402404785156,0.45308589935302734,0.1618606150150299
1789729832763534800,3.451534912109375,-0.002667665481567383,0.5494470596313477,0.21768222749233246
1789729832773470700,3.461470703125,-0.01595330238342285,0.6234760284423828,0.28899085521698
1789729832783406600,3.471406494140625,-0.00022339820861816406,0.6121139526367188,0.37464138865470886
1789729832793343200,3.48134326171875,0.0503695011138916,0.561762809753418,0.40308332443237305
1789729832803280100,3.491280029296875,0.15620779991149902,0.4401721954345703,0.3376155495643616
1789729832813217000,3.501217041015625,0.25314784049987793,0.31671810150146484,0.245053231716156
1789729832823154200,3.511154296875,0.3015730381011963,0.16311168670654297,0.17889738082885742
1789729832833091000,3.521091064453125,0.32381415367126465,0.017480850219726562,0.11136198788881302
1789729832843027500,3.53102734375,0.33078551292419434,-0.1018056869506836,0.04572024941444397
1789729832852964000,3.540964111328125,0.31200647354125977,-0.22852420806884766,-0.00586363673210144
1789729832862900500,3.550900390625,0.28335142135620117,-0.34655284881591797,-0.03857678174972534
1789729832872836900,3.5608369140625,0.2504558563232422,-0.4139556884765625,-0.04986520856618881
1789729832882773500,3.5707734375,0.21869277954101562,-0.45069026947021484,-0.053248025476932526
1789729832892710000,3.5807099609375,0.16195416450500488,-0.5043563842773438,-0.035396501421928406
1789729832902646300,3.590646240234375,0.11030268669128418,-0.5248603820800781,-0.06568043678998947
1789729832912583000,3.6005830078125,0.08653593063354492,-0.4983844757080078,-0.09204810112714767
1789729832922518500,3.6105185546875,0.0476531982421875,-0.4609975814819336,-0.08843772858381271
1789729832932454100,3.6204541015625,-0.010838508605957031,-0.40579700469970703,-0.05459269881248474
1789729832942390000,3.63039013671875,-0.08187031745910645,-0.30231285095214844,-0.04650745540857315
1789729832952326100,3.640326171875,-0.12744927406311035,-0.15843486785888672,-0.06332473456859589
1789729832962262500,3.650262451171875,-0.16660857200622559,-0.024381637573242188,-0.06156190484762192
1789729832972199400,3.660199462890625,-0.22046613693237305,0.0693349838256836,-0.04074103385210037
1789729832982136300,3.67013623046875,-0.2631947994232178,0.1824197769165039,-0.047865405678749084
1789729832992073500,3.680073486328125,-0.26656508445739746,0.3050823211669922,-0.08213317394256592
1789729833002011100,3.69001123046875,-0.2713165283203125,0.4277677536010742,-0.048769354820251465
1789729833011947500,3.699947509765625,-0.25875020027160645,0.49872493743896484,0.04481768608093262
1789729833021884000,3.7098837890625,-0.23478031158447266,0.547429084777832,0.12865479290485382
1789729833031820300,3.7198203125,-0.12698745727539062,0.5885076522827148,0.15521730482578278
1789729833041757200,3.729757080078125,0.019086360931396484,0.5817441940307617,0.23132377862930298
1789729833051693000,3.739693115234375,0.02137923240661621,0.4948873519897461,0.32625070214271545
1789729833061629000,3.74962890625,-0.10103130340576172,0.4148397445678711,0.3191605806350708
1789729833071564800,3.759564697265625,-0.18627238273620605,0.34490966796875,0.17298896610736847
1789729833081501200,3.769501220703125,-0.18684172630310059,0.16067981719970703,0.04973714053630829
1789729833091438000,3.77943798828125,-0.13015031814575195,-0.105194091796875,-0.03239884227514267
1789729833101374700,3.789374755859375,-0.03249073028564453,-0.3339262008666992,-0.10499121248722076
1789729833111311600,3.7993115234375,0.13318109512329102,-0.4631671905517578,-0.15409739315509796
1789729833121249300,3.809249267578125,0.32436347007751465,-0.5783205032348633,-0.14816437661647797
1789729833131184400,3.819184326171875,0.42142367362976074,-0.6644449234008789,-0.11925118416547775
1789729833141120000,3.8291201171875,0.46079158782958984,-0.6191835403442383,-0.09929531812667847
1789729833151056400,3.839056396484375,0.43501996994018555,-0.4993734359741211,-0.08179976791143417
1789729833160992800,3.84899267578125,0.3405454158782959,-0.3817129135131836,-0.06473159044981003
1789729833170929400,3.858929443359375,0.2676208019256592,-0.30371856689453125,-0.008399689570069313
1789729833180866300,3.8688662109375,0.16838574409484863,-0.2198171615600586,0.08333341032266617
1789729833190803700,3.8788037109375,-0.008208751678466797,-0.166961669921875,0.1321812868118286
1789729833200740400,3.888740234375,-0.16974472999572754,-0.10096359252929688,0.11865564435720444
1789729833210677000,3.898677001953125,-0.2127704620361328,-0.03289031982421875,0.09789428114891052
1789729833220613400,3.90861328125,-0.22081542015075684,-0.05406475067138672,0.1058754026889801
1789729833230549800,3.9185498046875,-0.19768714904785156,-0.15089702606201172,0.1436113864183426
1789729833240486400,3.928486328125,-0.1793975830078125,-0.20900821685791016,0.1286870837211609
1789729833250422800,3.9384228515625,-0.13344573974609375,-0.19583988189697266,0.08683076500892639
1789729833260359200,3.948359130859375,0.012896299362182617,-0.15738201141357422,0.05236474424600601
1789729833270295600,3.958295654296875,0.23656988143920898,-0.1726360321044922,0.06699299067258835
1789729833280232200,3.968232177734375,0.39771294593811035,-0.21118545532226562,0.09955562651157379
1789729833290168600,3.97816845703125,0.5353243350982666,-0.18655681610107422,0.11968502402305603
1789729833300105000,3.98810498046875,0.613567590713501,-0.12868595123291016,0.11791671812534332
1789729833310041600,3.99804150390625,0.6936843395233154,-0.0740365982055664,0.07544493675231934
1789729833319978000,4.00797802734375,0.7087728977203369,-0.04436683654785156,0.06591018289327621
1789729833329914400,4.017914306640625,0.6007378101348877,-0.017951011657714844,0.04936116933822632
1789729833339850800,4.027850830078125,0.41453981399536133,0.05315589904785156,-0.0213673934340477
1789729833349787400,4.037787353515625,0.262279748916626,0.1338520050048828,-0.15124717354774475
1789729833359723800,4.047723876953125,0.14446258544921875,0.20097827911376953,-0.22674445807933807
1789729833369660200,4.05766015625,-0.020906925201416016,0.2199859619140625,-0.26286107301712036
1789729833379596800,4.0675966796875,-0.13064956665039062,0.27228450775146484,-0.32406991720199585
1789729833389533200,4.077533203125,-0.10932564735412598,0.38286495208740234,-0.4656869173049927
1789729833399469600,4.087469482421875,-0.03871726989746094,0.46250152587890625,-0.4779965579509735
1789729833409406200,4.09740625,-0.10143470764160156,0.5110025405883789,-0.4149967432022095
1789729833419342600,4.107342529296875,-0.15773820877075195,0.6440458297729492,-0.39780646562576294
1789729833429279000,4.117279052734375,-0.15883922576904297,0.8502359390258789,-0.36198145151138306
1789729833439215400,4.12721533203125,-0.2741520404815674,0.9843416213989258,-0.18742108345031738
1789729833449152000,4.137152099609375,-0.48203372955322266,0.9939975738525391,0.009538531303405762
1789729833459088400,4.14708837890625,-0.6916408538818359,1.0400934219360352,0.05892723798751831
1789729833469024800,4.157024658203125,-0.9377033710479736,1.1296119689941406,-0.0011435449123382568
1789729833478961400,4.16696142578125,-1.187685251235962,1.2008466720581055,-0.04870149493217468
1789729833488897800,4.176897705078125,-1.3015700578689575,1.2214078903198242,-0.15256845951080322
1789729833498834200,4.186834228515625,-1.307826042175293,1.1799306869506836,-0.17625558376312256
1789729833508770600,4.1967705078125,-1.3180731534957886,1.0362224578857422,-0.09514355659484863
1789729833518707200,4.206707275390625,-1.3243019580841064,0.8912267684936523,-0.07113486528396606
1789729833528643600,4.2166435546875,-1.2470533847808838,0.825901985168457,-0.11390364170074463
1789729833538580000,4.226580078125,-1.1635241508483887,0.7534561157226562,-0.11715278029441833
1789729833548516600,4.2365166015625,-1.121819019317627,0.6661195755004883,-0.10588261485099792
1789729833558453000,4.246452880859375,-0.9997036457061768,0.5822763442993164,-0.13157717883586884
1789729833568389400,4.256389404296875,-0.8435523509979248,0.5031614303588867,-0.13208095729351044
1789729833578325800,4.26632568359375,-0.784414529800415,0.4040079116821289,-0.06525909900665283
1789729833588262400,4.276262451171875,-0.7369847297668457,0.3298225402832031,-0.03379690647125244
1789729833598198800,4.28619873046875,-0.691929817199707,0.32772350311279297,-0.10316994786262512
1789729833608135200,4.29613525390625,-0.7302525043487549,0.26372528076171875,-0.09058184921741486
1789729833618071800,4.30607177734375,-0.7909455299377441,0.12411689758300781,-0.12576335668563843
1789729833628008200,4.31600830078125,-0.8992977142333984,0.06250381469726562,-0.1634056568145752
1789729833637944600,4.325944580078125,-1.0506293773651123,0.06758308410644531,-0.1020360067486763
1789729833647881000,4.335880859375,-1.2245972156524658,0.09244728088378906,0.0069597214460372925
1789729833657817600,4.345817626953125,-1.40904700756073,0.20929431915283203,0.07333992421627045
1789729833667754000,4.35575390625,-1.5652518272399902,0.3108654022216797,0.06881099939346313
1789729833677690400,4.3656904296875,-1.67484450340271,0.2881126403808594,0.03981137275695801
1789729833687627000,4.375626953125,-1.7214548587799072,0.3690195083618164,0.06034451723098755
1789729833697563400,4.3855634765625,-1.683565378189087,0.4361419677734375,0.09601535648107529
1789729833707499800,4.395499755859375,-1.4848482608795166,0.40757179260253906,0.210720494389534
1789729833717436400,4.4054365234375,-1.0269889831542969,0.35199737548828125,0.40054547786712646
1789729833727373600,4.41537353515625,-0.5965650081634521,0.1955852508544922,0.4078797996044159
1789729833737310200,4.425310302734375,-0.39203405380249023,-0.006026268005371094,0.21223266422748566
1789729833747246600,4.43524658203125,-0.3494091033935547,-0.14794445037841797,0.2069227248430252
1789729833757183000,4.445182861328125,-0.5624446868896484,-0.3392906188964844,0.20363205671310425
1789729833767119600,4.45511962890625,-0.7528657913208008,-0.36911487579345703,0.11618407070636749
1789729833777055500,4.465055419921875,-0.995286226272583,-0.31348419189453125,0.0752929300069809
1789729833786991400,4.474991455078125,-1.097219467163086,-0.291107177734375,0.10922311991453171
1789729833796927500,4.484927490234375,-1.0424444675445557,-0.19195842742919922,0.16581282019615173
1789729833806864400,4.494864501953125,-0.9973471164703369,-0.11760616302490234,0.19484692811965942
1789729833816801300,4.50480126953125,-1.0021898746490479,-0.13086891174316406,0.24191731214523315
1789729833826738200,4.51473828125,-0.8892669677734375,-0.0045833587646484375,0.13855239748954773
1789729833836675000,4.524675048828125,-0.8968749046325684,0.004490852355957031,0.10646134614944458
1789729833846611500,4.534611572265625,-0.9829787015914917,0.028522491455078125,0.16283580660820007
1789729833856547000,4.544547119140625,-1.0158543586730957,0.18521404266357422,0.11327053606510162
1789729833866483700,4.554483642578125,-1.0542911291122437,0.2404956817626953,0.10270088911056519
1789729833876420000,4.564420166015625,-1.1099679470062256,0.20239925384521484,0.17976641654968262
1789729833886356500,4.5743564453125,-1.1595593690872192,0.2152566909790039,0.1902559995651245
1789729833896293000,4.584293212890625,-1.2516982555389404,0.21512126922607422,0.058335479348897934
1789729833906229500,4.5942294921875,-1.3150006532669067,0.12609195709228516,0.030243676155805588
1789729833916166000,4.604165771484375,-1.227083444595337,0.06812572479248047,0.30391746759414673
1789729833926102300,4.614102294921875,-1.149730920791626,0.18526840209960938,0.033706795424222946
1789729833936039000,4.624038818359375,-1.3714196681976318,-0.033570289611816406,0.14323650300502777
1789729833945975300,4.633975341796875,-1.2468805313110352,0.4075584411621094,-0.4314901828765869
1789729833955911700,4.64391162109375,-1.1356608867645264,0.4959678649902344,-0.7354439496994019
1789729833965848600,4.6538486328125,-1.0396018028259277,0.06732940673828125,-0.403971403837204
1789729833975785500,4.663785400390625,-0.9713499546051025,-0.12319278717041016,-0.17258745431900024
1789729833985722000,4.67372216796875,-0.8565316200256348,0.03809833526611328,-0.17980609834194183
1789729833995658800,4.68365869140625,-0.8070894479751587,0.13552093505859375,-0.2992900609970093
1789729834005595100,4.69359521484375,-0.7636315226554871,0.08539199829101562,-0.37169474363327026
1789729834015531800,4.70353173828125,-0.685189962387085,0.024288177490234375,-0.3340068757534027
1789729834025468200,4.71346826171875,-0.6704672574996948,0.03707408905029297,-0.321133017539978
1789729834035404500,4.723404541015625,-0.7965693473815918,0.0872650146484375,-0.3750436007976532
1789729834045341000,4.7333408203125,-0.8129903078079224,0.20276355743408203,-0.37928515672683716
1789729834055277600,4.743277587890625,-0.7052524089813232,0.33070850372314453,-0.3265744745731354
1789729834065214000,4.7532138671875,-0.5907291173934937,0.42377662658691406,-0.35123202204704285
1789729834075150300,4.763150390625,-0.45356786251068115,0.41426849365234375,-0.3781653344631195
1789729834085087000,4.7730869140625,-0.3427923917770386,0.30609989166259766,-0.4547327160835266
1789729834095023400,4.7830234375,-0.17899549007415771,0.21414470672607422,-0.5140690803527832
1789729834104959700,4.792959716796875,0.036336421966552734,0.189971923828125,-0.6595048904418945
1789729834114896100,4.802896240234375,0.2283930778503418,0.17093372344970703,-0.6343345642089844
1789729834124832800,4.812832763671875,0.31534242630004883,0.2884960174560547,-0.5204753279685974
1789729834134769200,4.82276904296875,0.3428307771682739,0.38477325439453125,-0.4468859136104584
1789729834144705500,4.83270556640625,0.27811098098754883,0.3822002410888672,-0.38385942578315735
1789729834154642200,4.84264208984375,0.14352238178253174,0.2660083770751953,-0.36692696809768677
1789729834164578600,4.85257861328125,0.030969619750976562,0.0900564193725586,-0.41806626319885254
1789729834174515000,4.862514892578125,-0.04582369327545166,-0.0928487777709961,-0.3752070665359497
1789729834184451300,4.872451416015625,-0.1933300495147705,-0.16950607299804688,-0.23792380094528198
1789729834194388000,4.882387939453125,-0.494437575340271,-0.07776165008544922,-0.083627849817276
1789729834204324400,4.892324462890625,-0.7597332000732422,-0.0015096664428710938,0.006394535303115845
1789729834214260700,4.9022607421875,-0.9234768152236938,-0.011219024658203125,0.1579062044620514
1789729834224197400,4.912197265625,-1.0019408464431763,-0.03968238830566406,0.2715754210948944
1789729834234133800,4.9221337890625,-0.9750218391418457,-0.09730911254882812,0.30050504207611084
1789729834244070100,4.932070068359375,-0.9019256234169006,-0.18433570861816406,0.2936822772026062
1789729834254006800,4.9420068359375,-0.8520048260688782,-0.2604541778564453,0.3217637538909912
1789729834263943200,4.951943115234375,-0.8543915748596191,-0.22934436798095703,0.304401159286499
1789729834273879600,4.961879638671875,-0.9124763011932373,-0.21999263763427734,0.3199942111968994
1789729834283816000,4.97181591796875,-0.9596102237701416,-0.1970348358154297,0.3729538917541504
1789729834293752600,4.981752685546875,-1.0062586069107056,-0.18825626373291016,0.34462377429008484
1789729834303689000,4.99168896484375,-0.9746413826942444,-0.2413311004638672,0.3044812083244324
1789729834313625300,5.001625244140625,-0.9908226728439331,-0.23191070556640625,0.3052884340286255
1789729834323562000,5.01156201171875,-1.2334078550338745,-0.06460094451904297,0.2306496649980545
1789729834333498400,5.021498291015625,-1.7036404609680176,0.09544086456298828,0.17663440108299255
1789729834343434800,5.031434814453125,-1.9633196592330933,0.28415966033935547,0.16725780069828033
1789729834353371100,5.04137109375,-2.1917366981506348,0.3413248062133789,0.18641486763954163
1789729834363307800,5.051307861328125,-2.451145648956299,0.4203615188598633,0.20130784809589386
1789729834373244200,5.061244140625,-2.722465991973877,0.6025819778442383,0.10753801465034485
1789729834383180500,5.0711806640625,-2.8043365478515625,0.6297626495361328,0.1829128861427307
1789729834393117200,5.0811171875,-2.534804105758667,0.5906839370727539,0.17512096464633942
1789729834403053600,5.091053466796875,-2.1128499507904053,0.5474910736083984,0.059633731842041016
1789729834412990200,5.100990234375,-1.7764078378677368,0.4188699722290039,0.07372881472110748
1789729834422926800,5.1109267578125,-1.5109946727752686,0.3722658157348633,0.019627131521701813
1789729834432863200,5.12086328125,-1.2200727462768555,0.35479068756103516,-0.08264122903347015
1789729834442799900,5.1307998046875,-0.9726705551147461,0.3160438537597656,-0.10524808615446091
1789729834452736500,5.140736572265625,-0.769805908203125,0.33722972869873047,-0.1398221254348755
1789729834462673000,5.1506728515625,-0.5263246893882751,0.36071109771728516,-0.30901503562927246
1789729834472609500,5.160609619140625,-0.2465394139289856,0.3551368713378906,-0.39003899693489075
1789729834482546200,5.170546142578125,-0.07870328426361084,0.32271671295166016,-0.3574957847595215
1789729834492482800,5.18048291015625,0.03489279747009277,0.26584529876708984,-0.38069990277290344
1789729834502419200,5.190419189453125,0.1790250539779663,0.20119571685791016,-0.4046458303928375
1789729834512355800,5.20035595703125,0.2383597493171692,0.12624645233154297,-0.3129655122756958
1789729834522292500,5.21029248046875,0.10469228029251099,0.12716388702392578,-0.22663220763206482
1789729834532228900,5.220228759765625,-0.05081462860107422,0.13243389129638672,-0.16092395782470703
1789729834542165500,5.23016552734375,-0.11311930418014526,0.1398782730102539,0.047691941261291504
1789729834552102100,5.24010205078125,-0.14745748043060303,0.07088947296142578,0.23635363578796387
1789729834562038500,5.25003857421875,-0.09724253416061401,-0.0024433135986328125,0.330289751291275
1789729834571975200,5.25997509765625,0.010501503944396973,-0.1732931137084961,0.38491976261138916
1789729834581912000,5.269912109375,0.031089484691619873,-0.34354400634765625,0.517118513584137
1789729834591848000,5.279847900390625,-0.10229504108428955,-0.4391508102416992,0.6107637286186218
1789729834601783600,5.289783447265625,-0.22247999906539917,-0.5367794036865234,0.7533791065216064
1789729834611719400,5.299719482421875,-0.3218229115009308,-0.6341257095336914,0.867369532585144
1789729834621656300,5.30965625,-0.5325906872749329,-0.695343017578125,0.8864145278930664
1789729834631593700,5.31959375,-0.6992309093475342,-0.7371301651000977,0.850533664226532
1789729834641531400,5.329531494140625,-0.7621758580207825,-0.7452020645141602,0.7925622463226318
1789729834651466800,5.339466796875,-0.7970693707466125,-0.7053718566894531,0.7839846611022949
1789729834661402000,5.349402099609375,-0.8291575908660889,-0.6584415435791016,0.7195720076560974
1789729834671337700,5.359337646484375,-0.8787215948104858,-0.654667854309082,0.6495702266693115
1789729834681273900,5.36927392578125,-0.8521597385406494,-0.6867837905883789,0.6626925468444824
1789729834691210200,5.379210205078125,-0.7322767972946167,-0.7188930511474609,0.592315673828125
1789729834701147400,5.3891474609375,-0.7500022649765015,-0.7701215744018555,0.4544045329093933
1789729834711085000,5.3990849609375,-0.9007149934768677,-0.842738151550293,0.321529358625412
1789729834721022700,5.409022705078125,-1.0623774528503418,-0.9460878372192383,0.21847140789031982
1789729834730959400,5.41895947265625,-1.1605178117752075,-1.0345773696899414,0.10336008667945862
1789729834740896000,5.42889599609375,-1.1723343133926392,-1.0938606262207031,0.08373938500881195
1789729834750832000,5.43883203125,-1.1642224788665771,-1.0952472686767578,0.09279748052358627
1789729834760768500,5.4487685546875,-1.0491077899932861,-1.0435667037963867,0.03546144813299179
1789729834770704600,5.45870458984375,-0.8474487066268921,-0.874455451965332,-0.0042570121586322784
1789729834780641000,5.46864111328125,-0.7217813730239868,-0.5570926666259766,0.05034663528203964
1789729834790577200,5.4785771484375,-0.6043136715888977,-0.19917678833007812,0.030965395271778107
1789729834800513500,5.488513427734375,-0.44008868932724,0.13241100311279297,-0.13614624738693237
1789729834810450200,5.4984501953125,-0.3197183609008789,0.4521598815917969,-0.34331411123275757
1789729834820386800,5.50838671875,-0.16199666261672974,0.7482585906982422,-0.49931663274765015
1789729834830323200,5.5183232421875,0.05252593755722046,1.0301570892333984,-0.6925923228263855
1789729834840259800,5.528259765625,0.19309765100479126,1.352278709411621,-0.8245378732681274
1789729834850196500,5.538196533203125,0.22046005725860596,1.6948871612548828,-0.7742264270782471
1789729834860132900,5.5481328125,0.32632386684417725,1.9404401779174805,-0.6257117986679077
1789729834870069500,5.558069580078125,0.5127493143081665,1.9547691345214844,-0.4135241210460663
1789729834880006100,5.568006103515625,0.5854291915893555,1.682906150817871,-0.251044899225235
1789729834889942500,5.577942626953125,0.6007770299911499,1.4001808166503906,-0.16398301720619202
1789729834899879200,5.587879150390625,0.44686388969421387,1.1854658126831055,-0.1351315826177597
1789729834909815800,5.59781591796875,0.102713942527771,0.8812179565429688,-0.061999350786209106
1789729834919752400,5.60775244140625,-0.2587848901748657,0.6507635116577148,0.014400064945220947
1789729834929688800,5.617688720703125,-0.6205906867980957,0.4586629867553711,0.04720987007021904
1789729834939625500,5.62762548828125,-0.9837891459465027,0.28134632110595703,0.1330266147851944
1789729834949562000,5.63756201171875,-1.2966012954711914,0.013978004455566406,0.25014960765838623
1789729834959498500,5.64749853515625,-1.4518816471099854,-0.23546600341796875,0.2591231167316437
1789729834969435100,5.65743505859375,-1.4150502681732178,-0.4431190490722656,0.1769525110721588
1789729834979371800,5.667371826171875,-1.3300299644470215,-0.5374536514282227,0.1612721085548401
1789729834989308200,5.67730810546875,-1.25081205368042,-0.4923877716064453,0.07387518882751465
1789729834999244800,5.687244873046875,-1.1957095861434937,-0.3607215881347656,-0.025466524064540863
1789729835009181400,5.697181396484375,-1.1938927173614502,-0.24537086486816406,-0.11554791033267975
1789729835019118000,5.7071181640625,-1.1771647930145264,-0.17723464965820312,-0.20947089791297913
1789729835029054500,5.717054443359375,-0.9353890419006348,-0.1776599884033203,-0.42912572622299194
1789729835038991000,5.7269912109375,-0.5488674640655518,-0.31848907470703125,-0.6434301733970642
1789729835048927500,5.736927490234375,-0.13210952281951904,-0.5162525177001953,-0.7407975792884827
1789729835058863900,5.74686376953125,0.1601696014404297,-0.6710281372070312,-0.7762893438339233
1789729835068800500,5.756800537109375,0.18788862228393555,-0.6855392456054688,-0.7798438668251038
1789729835078737000,5.76673681640625,-0.08680546283721924,-0.4576425552368164,-0.704336941242218
1789729835088673300,5.77667333984375,-0.5525413751602173,-0.17651081085205078,-0.6564114093780518
1789729835098609700,5.786609619140625,-1.0084675550460815,0.0913705825805664,-0.4937051832675934
1789729835108546300,5.79654638671875,-1.3456801176071167,0.3514232635498047,-0.31412363052368164
1789729835118482700,5.806482666015625,-1.5173416137695312,0.5731086730957031,-0.21082235872745514
1789729835128419000,5.816419189453125,-1.5620815753936768,0.771235466003418,-0.12930096685886383
1789729835138355700,5.826355712890625,-1.5398685932159424,0.8697500228881836,-0.05629970133304596
1789729835148292000,5.8362919921875,-1.312892198562622,0.9073753356933594,-0.1038617342710495
1789729835158228500,5.846228515625,-0.8996793031692505,0.8555526733398438,-0.2399987429380417
1789729835168164900,5.856164794921875,-0.469611257314682,0.7595434188842773,-0.3324996829032898
1789729835178101500,5.8661015625,-0.15476000308990479,0.7121315002441406,-0.4504960775375366
1789729835188038000,5.876037841796875,0.03415626287460327,0.7222118377685547,-0.5836463570594788
1789729835197974300,5.885974365234375,0.02357351779937744,0.8153162002563477,-0.6250240802764893
1789729835207911000,5.895910888671875,-0.20764386653900146,1.0649566650390625,-0.5049850344657898
1789729835217847300,5.905847412109375,-0.47235846519470215,1.289332389831543,-0.4288630485534668
1789729835227783700,5.91578369140625,-0.5819789171218872,1.4027557373046875,-0.29489433765411377
1789729835237720300,5.92572021484375,-0.46547746658325195,1.326725959777832,-0.006044439971446991
1789729835247656700,5.93565673828125,-0.19875109195709229,1.1214303970336914,0.35251444578170776
1789729835257593000,5.945593017578125,0.0808858871459961,0.8492422103881836,0.7641170024871826
1789729835267529700,5.95552978515625,0.33480381965637207,0.5149507522583008,1.218135118484497
1789729835277466400,5.96546630859375,0.492956280708313,0.17348289489746094,1.5204999446868896
1789729835287402800,5.97540283203125,0.43765902519226074,-0.11059284210205078,1.6251418590545654
1789729835297339400,5.98533935546875,0.21699655055999756,-0.3011131286621094,1.599644422531128
1789729835307276000,5.995276123046875,-0.09255170822143555,-0.4549589157104492,1.4816255569458008
1789729835317212400,6.00521240234375,-0.37132954597473145,-0.6814985275268555,1.3172191381454468
1789729835327149000,6.015149169921875,-0.3947489261627197,-0.9299707412719727,1.164170742034912
1789729835337085700,6.025085693359375,-0.16535377502441406,-1.116744041442871,0.9268243312835693
1789729835347022000,6.03502197265625,0.10935914516448975,-1.2756767272949219,0.7521337866783142
1789729835356958700,6.044958740234375,0.3340524435043335,-1.47869873046875,0.6546251177787781
1789729835366895600,6.0548955078125,0.4843398332595825,-1.6827239990234375,0.4764106571674347
1789729835376832500,6.06483251953125,0.5158382654190063,-1.8565549850463867,0.2921196222305298
1789729835386769200,6.07476904296875,0.688693642616272,-2.0026588439941406,0.09879948943853378
1789729835396705500,6.08470556640625,0.898635983467102,-2.1955161094665527,-0.0854097530245781
1789729835406642000,6.094641845703125,1.0787261724472046,-2.29195499420166,-0.13692638278007507
1789729835416578600,6.10457861328125,1.220517635345459,-2.2398619651794434,-0.1556604504585266
1789729835426515200,6.11451513671875,1.1759943962097168,-2.125730514526367,-0.15439553558826447
1789729835436451600,6.12445166015625,1.0518800020217896,-1.963942527770996,-0.15504376590251923
1789729835446388200,6.13438818359375,1.0139212608337402,-1.7472386360168457,-0.22264564037322998
1789729835456324600,6.14432470703125,1.1050398349761963,-1.4997444152832031,-0.3180656433105469
1789729835466261000,6.154260986328125,1.1546169519424438,-1.2171506881713867,-0.35685503482818604
1789729835476197600,6.16419775390625,1.015279769897461,-0.9236478805541992,-0.3280172049999237
1789729835486134300,6.17413427734375,0.8140468597412109,-0.5614919662475586,-0.16199991106987
1789729835496071000,6.18407080078125,0.5618995428085327,-0.1731281280517578,0.026061639189720154
1789729835506007300,6.19400732421875,0.3339167833328247,0.18254661560058594,0.12368404120206833
1789729835515943700,6.203943603515625,0.35540318489074707,0.4439849853515625,0.24600611627101898
1789729835525880300,6.21388037109375,0.5689866542816162,0.5231084823608398,0.4675086736679077
1789729835535817000,6.22381689453125,1.0043036937713623,0.42986011505126953,0.7037488222122192
1789729835545753300,6.23375341796875,1.512786626815796,0.14756011962890625,0.8726667165756226
1789729835555690000,6.24368994140625,2.0694572925567627,-0.32113170623779297,1.0454497337341309
1789729835565626600,6.253626708984375,2.7864177227020264,-0.8525638580322266,1.184524416923523
1789729835575563000,6.26356298828125,3.348498582839966,-1.3698225021362305,1.3532216548919678
1789729835585499600,6.273499755859375,3.669881820678711,-1.6743974685668945,1.4292993545532227
1789729835595436000,6.28343603515625,3.6871745586395264,-1.730484962463379,1.3596185445785522
1789729835605372400,6.293372314453125,3.339329957962036,-1.7399215698242188,1.180014967918396
1789729835615308800,6.303308837890625,2.6922683715820312,-1.7806777954101562,0.8807350993156433
1789729835625245400,6.313245361328125,2.0633647441864014,-1.810401439666748,0.5849345922470093
1789729835635181800,6.323181884765625,1.5136325359344482,-1.8871722221374512,0.38980576395988464
1789729835645118200,6.3331181640625,1.1350278854370117,-1.9907598495483398,0.20171168446540833
1789729835655054800,6.343054931640625,0.8498620986938477,-2.053933620452881,-0.0020600780844688416
1789729835664991200,6.3529912109375,0.5522041320800781,-2.016879081726074,-0.18874326348304749
1789729835674927600,6.362927734375,0.13893818855285645,-1.8456025123596191,-0.20828992128372192
1789729835684864000,6.372864013671875,-0.18594789505004883,-1.517789363861084,-0.09619736671447754
1789729835694800600,6.382800537109375,-0.08143806457519531,-1.1245307922363281,0.005601085722446442
1789729835704737000,6.392737060546875,0.2618241310119629,-0.8343353271484375,0.03113597258925438
1789729835714673400,6.40267333984375,0.51141357421875,-0.6715459823608398,-0.0012003649026155472
1789729835724610000,6.412610107421875,0.6590969562530518,-0.5207586288452148,-0.07728180289268494
1789729835734546400,6.42254638671875,0.8709399700164795,-0.3497905731201172,-0.20369043946266174
1789729835744482800,6.43248291015625,1.048609733581543,-0.1818246841430664,-0.39927035570144653
1789729835754419500,6.44241943359375,1.1490473747253418,-0.059101104736328125,-0.6120851039886475
1789729835764355800,6.45235595703125,1.1742169857025146,0.042652130126953125,-0.7789095640182495
1789729835774292500,6.46229248046875,1.1227328777313232,0.19501972198486328,-0.9451606273651123
1789729835784229000,6.47222900390625,1.1792514324188232,0.37795257568359375,-1.1620522737503052
1789729835794165500,6.48216552734375,1.2878310680389404,0.5989484786987305,-1.3115050792694092
1789729835804102100,6.49210205078125,1.2064008712768555,0.8724784851074219,-1.3080968856811523
1789729835814038800,6.502038818359375,0.8823850154876709,1.223893165588379,-1.2225933074951172
1789729835823975400,6.511975341796875,0.4764382839202881,1.6894216537475586,-1.084067463874817
1789729835833911800,6.521911865234375,0.19696474075317383,2.227092742919922,-0.8633812665939331
1789729835843848400,6.531848388671875,0.23406219482421875,2.7063465118408203,-0.7002477645874023
1789729835853785000,6.54178515625,0.6414840221405029,2.9364070892333984,-0.5239061117172241
1789729835863721500,6.551721435546875,1.210693597793579,2.816852569580078,-0.3132816553115845
1789729835873658000,6.561658203125,1.6235852241516113,2.5414600372314453,-0.04159381985664368
1789729835883594800,6.5715947265625,1.9492621421813965,2.271040916442871,0.15191982686519623
1789729835893531100,6.58153125,2.106011152267456,1.8792037963867188,0.39675384759902954
1789729835903467800,6.5914677734375,2.1623806953430176,1.4406967163085938,0.679738461971283
1789729835913404400,6.601404296875,2.2022509574890137,0.9962444305419922,0.9086252450942993
1789729835923340800,6.6113408203125,2.143650531768799,0.5046615600585938,1.1074023246765137
1789729835933277400,6.62127734375,2.0271353721618652,0.05135154724121094,1.0799146890640259
1789729835943214000,6.631214111328125,2.035407543182373,-0.42476558685302734,0.8557615280151367
1789729835953150700,6.641150634765625,1.9943203926086426,-0.9876775741577148,0.7560535669326782
1789729835963087000,6.651087158203125,1.567690372467041,-1.4732942581176758,0.8367694616317749
1789729835973023700,6.661023681640625,0.9206571578979492,-1.792262077331543,0.9177713394165039
1789729835982960400,6.67096044921875,0.2945864200592041,-2.026721954345703,0.9995697140693665
1789729835992896800,6.680896728515625,-0.2144174575805664,-2.2805228233337402,1.0765703916549683
1789729836002833400,6.69083349609375,-0.6692025661468506,-2.5311365127563477,1.0669071674346924
1789729836012770000,6.70077001953125,-1.1753891706466675,-2.8756837844848633,0.90092533826828
1789729836022706400,6.71070654296875,-1.677390694618225,-3.288760185241699,0.726146399974823
1789729836032643000,6.72064306640625,-2.027888774871826,-3.7191176414489746,0.5471292734146118
1789729836042579700,6.730579833984375,-2.169968843460083,-4.032966136932373,0.3998863101005554
1789729836052516400,6.740516357421875,-2.433414936065674,-3.954326629638672,0.35690832138061523
1789729836062452700,6.75045263671875,-2.324338436126709,-3.881269931793213,0.4412584900856018
1789729836072389400,6.760389404296875,-2.041806936264038,-3.4272289276123047,0.5932927131652832
1789729836082326000,6.770325927734375,-2.487516164779663,-2.9201345443725586,0.615374743938446
1789729836092262400,6.780262451171875,-3.324657917022705,-2.580306053161621,0.5964955687522888
1789729836102199000,6.790198974609375,-3.8689115047454834,-2.2611865997314453,0.7003166079521179
1789729836112135700,6.8001357421875,-3.555044174194336,-1.8807792663574219,0.5909969806671143
1789729836122072600,6.810072509765625,-2.9046945571899414,-1.629791259765625,0.24794542789459229
1789729836132009000,6.820009033203125,-2.34731388092041,-1.5567278861999512,-0.03350578248500824
1789729836141945000,6.829945068359375,-1.650541067123413,-1.313058853149414,-0.14719942212104797
1789729836151881700,6.8398818359375,-1.505831003189087,-0.7284002304077148,0.003918826580047607
1789729836161818400,6.849818359375,-2.044478416442871,-0.18972396850585938,0.2323591113090515
1789729836171755000,6.859755126953125,-2.70463228225708,0.10470199584960938,0.2484450489282608
1789729836181691400,6.86969140625,-3.123100757598877,0.29070472717285156,0.14401668310165405
1789729836191628000,6.8796279296875,-2.9675164222717285,0.5643062591552734,-0.05916423723101616
1789729836201564700,6.889564697265625,-2.677034616470337,0.8255949020385742,-0.3351445198059082
1789729836211501600,6.89950146484375,-2.6518514156341553,1.2408838272094727,-0.6305683255195618
1789729836221438000,6.90943798828125,-2.642035484313965,1.783940315246582,-0.8786251544952393
1789729836231374300,6.919374267578125,-2.340418577194214,2.2611608505249023,-1.0634865760803223
1789729836241311000,6.92931103515625,-1.963771104812622,2.545673370361328,-1.1409192085266113
1789729836251247400,6.939247314453125,-1.6947274208068848,2.644717216491699,-1.1834683418273926
1789729836261184000,6.94918408203125,-1.6165581941604614,2.6399707794189453,-1.088791847229004
1789729836271120600,6.95912060546875,-1.653450846672058,2.6490707397460938,-0.8156535029411316
1789729836281057300,6.969057373046875,-1.9809911251068115,2.7655487060546875,-0.7228025794029236
1789729836290994000,6.978993896484375,-2.273366689682007,2.8612327575683594,-0.7060474753379822
1789729836300930300,6.988930419921875,-2.400477647781372,2.798410415649414,-0.49244287610054016
1789729836310866700,6.99886669921875,-2.502603530883789,2.751619338989258,-0.25670304894447327
1789729836320803800,7.008803955078125,-2.599681854248047,2.722797393798828,-0.3125147223472595
1789729836330739700,7.01873974609375,-2.4549200534820557,2.5182762145996094,-0.21048806607723236
1789729836340675600,7.028675537109375,-2.1087753772735596,2.078580856323242,0.04362061992287636
1789729836350611700,7.03861181640625,-1.8069932460784912,1.7505779266357422,-0.007978450506925583
1789729836360547800,7.0485478515625,-1.5224261283874512,1.751260757446289,-0.2525576055049896
1789729836370484200,7.058484130859375,-1.1740913391113281,1.725682258605957,-0.3213382065296173
1789729836380420900,7.0684208984375,-0.937936544418335,1.4819536209106445,-0.17460273206233978
1789729836390357800,7.078357666015625,-1.1374359130859375,1.3088960647583008,0.04819336161017418
1789729836400295400,7.08829541015625,-1.6475932598114014,1.1968517303466797,0.16463276743888855
1789729836410232300,7.098232421875,-2.1209285259246826,1.1246747970581055,0.2755607068538666
1789729836420169000,7.1081689453125,-2.322195053100586,0.973088264465332,0.3382420539855957
1789729836430105600,7.118105712890625,-2.179041862487793,0.6535940170288086,0.30374807119369507
1789729836440042000,7.1280419921875,-2.0028533935546875,0.3883485794067383,0.05196787416934967
1789729836449978600,7.137978515625,-1.235933542251587,0.4082822799682617,-0.45259004831314087
1789729836459915000,7.1479150390625,-1.232534646987915,-0.14541339874267578,0.25343412160873413
1789729836469851400,7.157851318359375,-1.5524563789367676,-0.39528465270996094,0.24666161835193634
1789729836479788000,7.1677880859375,-1.7840442657470703,-0.47004222869873047,0.2434605062007904
1789729836489724400,7.177724365234375,-2.0458290576934814,-0.5251522064208984,0.3977794647216797
1789729836499660800,7.187660888671875,-2.9360857009887695,-0.46209239959716797,0.5607813596725464
1789729836509597200,7.19759716796875,-3.542351722717285,-0.4827117919921875,0.5393261909484863
1789729836519533800,7.207533935546875,-3.400829792022705,-0.6010913848876953,0.5569363832473755
1789729836529470200,7.21747021484375,-2.7055931091308594,-0.7035541534423828,0.48312944173812866
1789729836539406600,7.227406494140625,-2.1236181259155273,-0.9752225875854492,0.42860060930252075
1789729836549343200,7.23734326171875,-1.6628856658935547,-1.5329818725585938,0.3336411416530609
1789729836559279600,7.247279541015625,-1.1524977684020996,-2.103425979614258,0.1953120231628418
1789729836569216000,7.257216064453125,-1.3314106464385986,-2.1845622062683105,0.3274344205856323
1789729836579152600,7.267152587890625,-1.4216854572296143,-2.2602224349975586,0.3160683512687683
1789729836589089300,7.27708935546875,-1.3975532054901123,-2.3658018112182617,0.21789425611495972
1789729836599025700,7.287025634765625,-1.5484365224838257,-2.1786117553710938,0.06821116805076599
1789729836608962300,7.29696240234375,-1.5163170099258423,-1.8972015380859375,0.05539534613490105
1789729836618899000,7.30689892578125,-0.862488865852356,-1.5293159484863281,0.09090577065944672
1789729836628835600,7.316835693359375,-0.13017475605010986,-1.2772159576416016,0.17336054146289825
1789729836638772000,7.32677197265625,0.34913361072540283,-1.151139259338379,0.24758952856063843
1789729836648709600,7.336709716796875,0.6957564353942871,-1.1799030303955078,0.28027284145355225
1789729836658646300,7.346646240234375,0.961653470993042,-1.2391042709350586,0.3511699438095093
1789729836668583000,7.3565830078125,1.1036961078643799,-1.2401599884033203,0.5196827054023743
1789729836678519600,7.36651953125,0.9123859405517578,-1.3401460647583008,0.6255412697792053
1789729836688456200,7.376456298828125,0.42704105377197266,-1.391505241394043,0.7030041813850403
1789729836698393000,7.38639306640625,0.06944048404693604,-1.4263935089111328,0.5748000144958496
1789729836708328700,7.39632861328125,-0.16127896308898926,-1.3891010284423828,0.3748471140861511
1789729836718264600,7.4062646484375,-0.28658103942871094,-1.2651424407958984,0.17494714260101318
1789729836728200400,7.416200439453125,-0.14540410041809082,-1.0623817443847656,-0.009336486458778381
1789729836738137600,7.4261376953125,-0.002808213233947754,-0.8299884796142578,-0.03994949907064438
1789729836748075500,7.436075439453125,0.24129188060760498,-0.6312456130981445,-0.05245005339384079
1789729836758012000,7.446011962890625,0.4863567352294922,-0.49364376068115234,-0.2292236089706421
1789729836767949000,7.455948974609375,0.6265976428985596,-0.4274730682373047,-0.4846080541610718
1789729836777884700,7.465884765625,0.6646758317947388,-0.46617984771728516,-0.6904757022857666
1789729836787821000,7.475821044921875,0.7238855361938477,-0.3293485641479492,-0.7094534635543823
1789729836797757700,7.4857578125,0.9440793991088867,0.1122884750366211,-0.6033552885055542
1789729836807694000,7.495694091796875,1.0948171615600586,0.6196527481079102,-0.5815672874450684
1789729836817630500,7.50563037109375,0.9880023002624512,1.1504087448120117,-0.48592710494995117
1789729836827566800,7.51556689453125,0.8006478548049927,1.6290664672851562,-0.5054556131362915
1789729836837503700,7.525503662109375,0.6798895597457886,2.0110979080200195,-0.44708889722824097
1789729836847441200,7.535441162109375,0.7125192880630493,2.2517738342285156,-0.14253529906272888
1789729836857377800,7.545377685546875,1.031516432762146,2.1887893676757812,0.125968337059021
1789729836867314200,7.555314208984375,1.5606663227081299,1.8237829208374023,0.2585441768169403
1789729836877250300,7.565250244140625,2.048015594482422,1.2984437942504883,0.30562180280685425
1789729836887187000,7.57518701171875,2.290631055831909,0.8354692459106445,0.3935246765613556
1789729836897123800,7.585123779296875,2.0522842407226562,0.5625143051147461,0.6278627514839172
1789729836907060500,7.595060546875,1.43770170211792,0.3981304168701172,0.8736055493354797
1789729836916997000,7.6049970703125,0.8457117080688477,0.3577709197998047,1.1642446517944336
1789729836926932500,7.614932373046875,0.4026010036468506,0.3587045669555664,1.4035335779190063
1789729836936868400,7.624868408203125,0.15846610069274902,0.27997398376464844,1.5359402894973755
1789729836946804200,7.63480419921875,0.09819269180297852,0.23223114013671875,1.560100793838501
1789729836956740600,7.64474072265625,0.15868186950683594,0.16574668884277344,1.4435392618179321
1789729836966677800,7.654677734375,0.11872315406799316,0.016694068908691406,1.3099170923233032
1789729836976615200,7.664615234375,-0.015155196189880371,-0.2881612777709961,1.1856820583343506
1789729836986552800,7.674552734375,-0.03196060657501221,-0.7576007843017578,1.075368046760559
1789729836996489700,7.68448974609375,0.24941909313201904,-1.3055896759033203,0.8846355676651001
1789729837006426400,7.69442626953125,0.7616459131240845,-1.7852120399475098,0.4859398305416107
1789729837016362800,7.70436279296875,1.2246155738830566,-1.990647315979004,-0.1761104166507721
1789729837026299400,7.71429931640625,1.1711909770965576,-1.818608283996582,-0.8690943717956543
1789729837036236000,7.724236083984375,0.4375556707382202,-1.415236473083496,-1.2357373237609863
1789729837046172400,7.73417236328125,-0.455430269241333,-0.8361644744873047,-1.1104633808135986
1789729837056109000,7.744109130859375,-0.8888633251190186,-0.19220829010009766,-0.6770063042640686
1789729837066045700,7.754045654296875,-0.8456470370292664,0.3306589126586914,-0.22908461093902588
1789729837075982000,7.763982177734375,-0.4043048620223999,0.5627460479736328,0.09332537651062012
1789729837085918700,7.773918701171875,0.28926563262939453,0.4511289596557617,0.12666453421115875
1789729837095855400,7.78385546875,0.8486164808273315,0.06243133544921875,-0.02611585706472397
1789729837105791700,7.793791748046875,1.2431470155715942,-0.24950408935546875,-0.23514419794082642
1789729837115728400,7.803728271484375,1.3928375244140625,-0.42531776428222656,-0.37453871965408325
1789729837125665000,7.8136650390625,1.172795057296753,-0.44600582122802734,-0.34699559211730957
1789729837135601700,7.8236015625,0.7800387144088745,-0.2967510223388672,-0.3698634207248688
1789729837145538600,7.83353857421875,0.3091620206832886,0.0298919677734375,-0.4066835045814514
1789729837155474700,7.843474609375,-0.15375566482543945,0.4168548583984375,-0.4640771150588989
1789729837165411000,7.8534111328125,-0.42328858375549316,0.7518548965454102,-0.40287452936172485
1789729837175347200,7.86334716796875,-0.6004863977432251,0.9873085021972656,-0.3036801517009735
1789729837185283600,7.87328369140625,-0.5778162479400635,0.9848871231079102,-0.16566970944404602
1789729837195220000,7.883219970703125,-0.08717966079711914,0.9022960662841797,-0.15903957188129425
1789729837205156600,7.893156494140625,0.565960168838501,0.7666664123535156,-0.27213212847709656
1789729837215093200,7.90309326171875,1.0186368227005005,0.5692682266235352,-0.35374170541763306
1789729837225030000,7.91302978515625,0.9959074258804321,0.4383563995361328,-0.36547666788101196
1789729837234966500,7.922966552734375,0.6226811408996582,0.6061038970947266,-0.3473448157310486
1789729837244903200,7.932903076171875,0.16756045818328857,1.0493640899658203,-0.18938294053077698
1789729837254839800,7.94283984375,-0.16243696212768555,1.5661249160766602,0.15965138375759125
1789729837264776400,7.9527763671875,-0.09413421154022217,1.9257287979125977,0.6436216831207275
1789729837274713000,7.962713134765625,0.488589882850647,1.9828424453735352,1.029873251914978
1789729837284650200,7.972650146484375,1.318567156791687,1.7106389999389648,1.1568001508712769
1789729837294587100,7.982587158203125,1.9867709875106812,1.266164779663086,1.1298794746398926
1789729837304522800,7.992522705078125,2.219143867492676,0.7037878036499023,1.1183336973190308
1789729837314458600,8.002458740234376,1.9166203737258911,0.38458824157714844,0.9199201464653015
1789729837324394800,8.012394775390625,1.1403461694717407,0.28977394104003906,0.5958402156829834
1789729837334331100,8.0223310546875,0.325130820274353,0.21683502197265625,0.3895074725151062
1789729837344268000,8.03226806640625,-0.25950193405151367,0.1997089385986328,0.31687691807746887
1789729837354205000,8.042204833984375,-0.6206389665603638,0.28351593017578125,0.24839603900909424
1789729837364142000,8.05214208984375,-0.9721349477767944,0.3792591094970703,0.2842300832271576
1789729837374079200,8.062079345703125,-1.2622735500335693,0.3221883773803711,0.4452414810657501
1789729837384016600,8.0720166015625,-1.1769661903381348,0.09377574920654297,0.46364182233810425
1789729837393952500,8.081952392578126,-0.7915026545524597,-0.16016292572021484,0.23916056752204895
1789729837403888400,8.091888427734375,-0.47569072246551514,-0.3924093246459961,-0.07452067732810974
1789729837413824300,8.10182421875,-0.6110196709632874,-0.5840167999267578,-0.34444692730903625
1789729837423761000,8.111760986328125,-1.0828707218170166,-0.8822650909423828,-0.3404898941516876
1789729837433698000,8.121697998046875,-1.2683258056640625,-1.199864387512207,-0.18960712850093842
1789729837443635000,8.131635009765626,-1.0889006853103638,-1.4197673797607422,0.044375479221343994
1789729837453572400,8.141572265625,-0.6237030029296875,-1.4737873077392578,0.19106525182724
1789729837463509000,8.151509033203125,-0.0928349494934082,-1.454345703125,0.18681371212005615
1789729837473445600,8.161445556640626,0.1654413938522339,-1.3960132598876953,0.08671744167804718
1789729837483382000,8.171382080078125,-0.009176254272460938,-1.2939214706420898,-0.08776211738586426
1789729837493318700,8.181318603515624,-0.3784869909286499,-1.2140064239501953,-0.262563556432724
1789729837503255300,8.19125537109375,-0.769676685333252,-1.1145401000976562,-0.32045310735702515
1789729837513191400,8.20119140625,-1.1216285228729248,-0.9015426635742188,-0.243711918592453
1789729837523128300,8.21112841796875,-1.1516036987304688,-0.6297245025634766,-0.19060967862606049
1789729837533065000,8.22106494140625,-0.8042417764663696,-0.43561649322509766,-0.25776636600494385
1789729837543001600,8.231001708984374,-0.3075343370437622,-0.38183021545410156,-0.35764190554618835
1789729837552937700,8.240937744140625,0.15561985969543457,-0.33751964569091797,-0.5413801670074463
1789729837562873600,8.25087353515625,0.4584437608718872,-0.22453022003173828,-0.6352416276931763
1789729837572809700,8.260809814453125,0.50011146068573,0.028380393981933594,-0.5908752083778381
1789729837582746400,8.270746337890625,0.370418906211853,0.33031749725341797,-0.41218841075897217
1789729837592682800,8.280682861328126,0.34861838817596436,0.4235992431640625,-0.19744092226028442
1789729837602619600,8.29061962890625,0.6235426664352417,0.3326120376586914,-0.05482714623212814
1789729837612557800,8.300557861328125,0.8736988306045532,0.1670694351196289,-0.09480168670415878
1789729837622494500,8.310494384765626,0.8899192810058594,-0.06623172760009766,-0.13915462791919708
1789729837632431000,8.32043115234375,0.68985915184021,-0.15688323974609375,-0.065781369805336
1789729837642367200,8.3303671875,0.3190131187438965,-0.14774036407470703,0.0756596177816391
1789729837652303000,8.34030322265625,0.12356245517730713,-0.06956863403320312,0.24090951681137085
1789729837662239500,8.350239501953125,-0.06985688209533691,0.11587333679199219,0.4389614462852478
1789729837672175900,8.36017578125,-0.4205487370491028,0.38466930389404297,0.5101879835128784
1789729837682112500,8.370112548828125,-0.7003606557846069,0.6702594757080078,0.43946465849876404
1789729837692049200,8.380049072265624,-0.8001880645751953,0.9060754776000977,0.41119736433029175
1789729837701986300,8.389986328125,-0.7177696824073792,0.8582763671875,0.5563404560089111
1789729837711923200,8.399923095703125,-0.36531198024749756,0.6589126586914062,0.6717953681945801
1789729837721860000,8.409860107421874,0.08796608448028564,0.42492008209228516,0.7269304394721985
1789729837731797000,8.419796875,0.5431256294250488,0.16536808013916016,0.7000070214271545
1789729837741733400,8.4297333984375,0.919115424156189,-0.13229656219482422,0.5888499617576599
1789729837751670000,8.439669921875,0.8527448177337646,-0.4422731399536133,0.3008873462677002
1789729837761606400,8.4496064453125,0.49920153617858887,-0.49422740936279297,-0.04661770164966583
1789729837771542800,8.459542724609374,0.1647484302520752,-0.2716026306152344,-0.21520449221134186
1789729837781479400,8.4694794921875,-0.2675873041152954,0.0006380081176757812,-0.08701573312282562
1789729837791415800,8.479415771484375,-0.5244013071060181,0.14365386962890625,0.2362690567970276
1789729837801352700,8.489352783203126,-0.5354149341583252,0.14339065551757812,0.6668888330459595
1789729837811289900,8.499289794921875,-0.4865264892578125,0.1241140365600586,0.8415184617042542
1789729837821226500,8.5092265625,-0.26506900787353516,0.021274566650390625,0.7383390665054321
1789729837831163100,8.5191630859375,-0.08576321601867676,-0.13897037506103516,0.588690459728241
1789729837841099500,8.529099609375,-0.1764516830444336,-0.22278118133544922,0.4451603293418884
1789729837851036000,8.539035888671876,-0.524381160736084,-0.12004470825195312,0.3535541296005249
1789729837860972300,8.54897216796875,-0.8766156435012817,0.068878173828125,0.36892879009246826
1789729837870908700,8.55890869140625,-1.2575064897537231,0.14098644256591797,0.5334595441818237
1789729837880845000,8.568844970703125,-1.410219430923462,0.10413169860839844,0.7543280720710754
1789729837890781400,8.578781494140625,-1.320703387260437,0.34316539764404297,0.9365548491477966
1789729837900719000,8.588718994140624,-1.09006929397583,0.49625492095947266,0.993910551071167
1789729837910656000,8.598656005859375,-0.6562819480895996,0.25508975982666016,1.0292400121688843
1789729837920592400,8.60859228515625,-0.11548960208892822,-0.2433462142944336,0.9722546935081482
1789729837930528500,8.618528564453126,0.4591822624206543,-0.8124151229858398,0.8064290285110474
1789729837940465400,8.62846533203125,0.7958829402923584,-1.2710456848144531,0.5186842083930969
1789729837950402300,8.63840234375,0.6865053176879883,-1.5101547241210938,0.05136765539646149
1789729837960339000,8.6483388671875,0.21609461307525635,-1.3606843948364258,-0.41463544964790344
1789729837970275300,8.658275390625,-0.5350942611694336,-0.9807024002075195,-0.5995299816131592
1789729837980212000,8.6682119140625,-1.2657428979873657,-0.4102802276611328,-0.65522700548172
1789729837990148600,8.678148681640625,-1.8535547256469727,0.4371061325073242,-0.5303326845169067
1789729838000086300,8.688086181640625,-2.134143352508545,1.15765380859375,-0.3804740607738495
1789729838010020900,8.698020751953125,-1.8605005741119385,1.6275320053100586,-0.17250211536884308
1789729838019956000,8.7079560546875,-1.0939607620239258,1.6865921020507812,0.03409130871295929
1789729838029891300,8.717891357421875,-0.1422039270401001,1.3802595138549805,0.189874067902565
1789729838039827200,8.7278271484375,0.7538602352142334,0.7706727981567383,0.20020338892936707
1789729838049763800,8.737763916015625,1.3902058601379395,-0.010623931884765625,0.07924960553646088
1789729838059701000,8.747700927734375,1.7185662984848022,-0.6528253555297852,-0.15603750944137573
1789729838069639000,8.757638916015624,1.7424960136413574,-0.9915485382080078,-0.43268775939941406
1789729838079576800,8.767576904296876,1.4493602514266968,-1.017806053161621,-0.5201327204704285
1789729838089514800,8.7775146484375,0.9740637540817261,-0.8271770477294922,-0.2713214159011841
1789729838099451400,8.787451416015625,0.6143836975097656,-0.6799745559692383,0.042390599846839905
1789729838109388000,8.797387939453126,0.5082709789276123,-0.6907243728637695,0.13419419527053833
1789729838119324400,8.807324462890625,0.572356104850769,-0.5346527099609375,-0.0688333511352539
1789729838129261000,8.817260986328124,0.4127922058105469,-0.38478755950927734,-0.2929786443710327
1789729838139198000,8.827197998046875,0.05317866802215576,-0.3006763458251953,-0.2780953645706177
1789729838149134600,8.837134521484375,-0.4404618740081787,-0.19307422637939453,-0.24498146772384644
1789729838159071000,8.847071044921876,-0.7707864046096802,-0.07567787170410156,-0.34096431732177734
1789729838169007600,8.857007568359375,-0.7939567565917969,-0.0390625,-0.38545510172843933
1789729838178944500,8.866944580078124,-0.6623565554618835,-0.08804512023925781,-0.34035801887512207
1789729838188880600,8.876880615234375,-0.5085210800170898,-0.2824420928955078,-0.21748752892017365
1789729838198817000,8.886817138671875,-0.36402130126953125,-0.6433277130126953,-0.03100017085671425
1789729838208753200,8.896753173828126,-0.09562969207763672,-0.9933614730834961,0.09469162672758102
1789729838218689500,8.906689453125,0.38410258293151855,-1.2659540176391602,0.1539834439754486
1789729838228626000,8.9166259765625,0.8444627523422241,-1.3735475540161133,0.07942597568035126
1789729838238562800,8.926562744140625,0.9823294878005981,-1.2476940155029297,-0.10872124135494232
1789729838248499500,8.93649951171875,0.6750144958496094,-0.869563102722168,-0.3306114077568054
1789729838258436400,8.946436279296876,0.1482456922531128,-0.34888458251953125,-0.48219946026802063
1789729838268373000,8.956373046875,-0.29406654834747314,0.24309062957763672,-0.4816243052482605
1789729838278310000,8.966309814453124,-0.4783165454864502,0.6963663101196289,-0.2930941879749298
1789729838288246500,8.97624658203125,-0.39862000942230225,0.9587745666503906,0.008165717124938965
1789729838298183700,8.98618359375,0.07586705684661865,1.1593847274780273,0.12495619058609009
1789729838308120300,8.996120361328124,0.6702542304992676,1.3022193908691406,-0.05021632835268974
1789729838318057000,9.006056884765625,0.8705310821533203,1.2528696060180664,-0.23451083898544312
1789729838327993300,9.015993408203125,0.5470168590545654,1.1100778579711914,-0.21588164567947388
1789729838337930200,9.02593017578125,0.0992574691772461,0.9036931991577148,-0.07168276607990265
1789729838347866600,9.03586669921875,-0.031192302703857422,0.6439895629882812,0.1760304868221283
1789729838357802800,9.045802734375,0.2198580503463745,0.39515018463134766,0.34803441166877747
1789729838367739100,9.0557392578125,0.49493730068206787,0.22768402099609375,0.3555247485637665
1789729838377675500,9.065675537109374,0.5340540409088135,0.214508056640625,0.25949063897132874
1789729838387612000,9.07561181640625,0.2664663791656494,0.32409191131591797,0.18120422959327698
1789729838397548500,9.085548583984375,-0.1446152925491333,0.4136009216308594,0.27952396869659424
1789729838407485400,9.0954853515625,-0.18150687217712402,0.36225414276123047,0.3883032202720642
1789729838417422000,9.105422119140625,0.21164965629577637,0.08684921264648438,0.3830302953720093
1789729838427359000,9.11535888671875,0.7097150087356567,-0.4030780792236328,0.3615890145301819
1789729838437295600,9.125295654296876,1.1229677200317383,-0.8687601089477539,0.2227337658405304
1789729838447232500,9.135232421875,1.2665783166885376,-1.1125669479370117,-0.01600656658411026
1789729838457169200,9.145169189453124,1.0273984670639038,-1.1542682647705078,-0.1520303636789322
1789729838467106000,9.15510595703125,0.3211718797683716,-1.053365707397461,-0.1211651861667633
1789729838477042700,9.165042724609375,-0.5697293281555176,-0.8040647506713867,0.08542263507843018
1789729838486979600,9.1749794921875,-1.226787805557251,-0.5154991149902344,0.40988630056381226
1789729838496916000,9.184916015625,-1.3522206544876099,-0.27103710174560547,0.5151639580726624
1789729838506852600,9.1948525390625,-1.0229557752609253,-0.11411762237548828,0.35377198457717896
1789729838516789200,9.204789306640626,-0.7869926691055298,-0.052475929260253906,0.10590245574712753
1789729838526726000,9.214725830078125,-0.724948525428772,0.1793375015258789,-0.06266431510448456
1789729838536662300,9.224662353515624,-0.7031998634338379,0.41416358947753906,0.028002949431538582
1789729838546599000,9.234598876953125,-0.5496262311935425,0.5425300598144531,0.2833379805088043
1789729838556535600,9.24453564453125,-0.19023489952087402,0.5958213806152344,0.4687732458114624
1789729838566472000,9.254471923828126,0.43569159507751465,0.6596603393554688,0.45090579986572266
1789729838576408600,9.26440869140625,1.0643019676208496,0.7423801422119141,0.2903484106063843
1789729838586345200,9.27434521484375,1.4477219581604004,0.8571910858154297,0.16384509205818176
1789729838596281600,9.284281494140625,1.5194551944732666,0.8505430221557617,0.1346212774515152
1789729838606218200,9.29421826171875,1.329249620437622,0.8423490524291992,0.1257370114326477
1789729838616155000,9.30415478515625,1.0544995069503784,0.8473567962646484,0.11978143453598022
1789729838626091500,9.314091552734375,0.8371467590332031,0.8921098709106445,0.08104163408279419
1789729838636028000,9.32402783203125,0.683669924736023,0.9550838470458984,-0.0002213120460510254
1789729838645964500,9.333964599609375,0.5034403800964355,1.0313701629638672,-0.06720851361751556
1789729838655901200,9.343901123046875,0.18009305000305176,1.0639457702636719,0.009573101997375488
1789729838665837600,9.353837646484376,-0.038126587867736816,1.0726776123046875,0.18188758194446564
1789729838675774200,9.363774169921875,0.0033112764358520508,0.9645910263061523,0.34961679577827454
1789729838685710800,9.3737109375,0.200639009475708,0.691802978515625,0.4857768416404724
1789729838695647500,9.3836474609375,0.4100522994995117,0.3474559783935547,0.5218446254730225
1789729838705584000,9.393584228515625,0.5874396562576294,-0.042250633239746094,0.44097843766212463
1789729838715520800,9.403520751953126,0.693195104598999,-0.3913764953613281,0.29443126916885376
1789729838725457400,9.41345751953125,0.6149300336837769,-0.6234979629516602,0.13169461488723755
1789729838735394000,9.42339404296875,0.27888739109039307,-0.8076953887939453,0.04059690982103348
1789729838745331000,9.4333310546875,-0.218927264213562,-0.9694032669067383,-0.06480922549962997
1789729838755267600,9.443267578125,-0.5292224884033203,-0.9668207168579102,-0.2828785181045532
1789729838765204200,9.453204345703124,-0.5447585582733154,-0.7860984802246094,-0.5070043802261353
1789729838775140900,9.463140869140625,-0.6639978885650635,-0.5092010498046875,-0.6407002210617065
1789729838785077500,9.473077392578125,-0.9120586514472961,-0.2507772445678711,-0.5692996382713318
1789729838795014100,9.48301416015625,-0.8060396909713745,-0.005489349365234375,-0.38260796666145325
1789729838804950800,9.49295068359375,-0.39071667194366455,0.1901683807373047,-0.18753185868263245
1789729838814887400,9.502887451171874,0.0037817955017089844,0.3903055191040039,-0.08322089165449142
1789729838824824000,9.512823974609375,0.4073214530944824,0.3767862319946289,0.20314465463161469
1789729838834760700,9.5227607421875,0.7398636341094971,0.03233623504638672,0.5777795910835266
1789729838844697600,9.532697509765624,0.9863702058792114,-0.47289466857910156,0.7310755848884583
1789729838854634200,9.54263427734375,1.3313143253326416,-0.8714466094970703,0.7189310193061829
1789729838864571000,9.55257080078125,1.4600856304168701,-1.2335691452026367,0.593271791934967
1789729838874507500,9.562507568359376,1.149819016456604,-1.5064888000488281,0.47506481409072876
1789729838884444200,9.572444091796875,0.5496834516525269,-1.6506876945495605,0.4057343602180481
1789729838894380800,9.582380859375,-0.09530997276306152,-1.717294692993164,0.36992424726486206
1789729838904317400,9.5923173828125,-0.4873870611190796,-1.5883722305297852,0.16216599941253662
1789729838914254000,9.602254150390625,-0.5014934539794922,-1.1257047653198242,-0.19953098893165588
1789729838924190700,9.612190673828126,-0.42482876777648926,-0.638941764831543,-0.45860791206359863
1789729838934127600,9.622127685546875,-0.4396402835845947,-0.18587112426757812,-0.48398712277412415
1789729838944064500,9.632064453125,-1.073218822479248,-0.10017967224121094,0.13361261785030365
1789729838954001200,9.642001220703126,-1.4510140419006348,0.39385128021240234,-0.21073441207408905
1789729838963937500,9.6519375,-0.9732809066772461,0.7935848236083984,-0.9149320721626282
1789729838973874000,9.6618740234375,-0.05928504467010498,0.39698219299316406,-0.7866907715797424
1789729838983810300,9.671810302734375,0.957316517829895,-0.3229818344116211,-0.35849106311798096
1789729838993747000,9.681746826171874,1.6224241256713867,-0.8012714385986328,0.21004395186901093
1789729839003684400,9.691684326171876,2.038147449493408,-0.9682674407958984,0.37735897302627563
1789729839013621000,9.70162109375,2.3736908435821533,-0.8712148666381836,0.32400432229042053
1789729839023557600,9.7115576171875,2.573369026184082,-0.6981916427612305,0.32168319821357727
1789729839033494300,9.721494384765625,2.451543092727661,-0.41367244720458984,0.3767545521259308
1789729839043431000,9.731430908203125,1.884321928024292,0.03643321990966797,0.5535791516304016
1789729839053367600,9.741367431640626,1.237227201461792,0.38469791412353516,0.7427213191986084
1789729839063304200,9.75130419921875,0.8348748683929443,0.4357128143310547,0.9618844985961914
1789729839073240600,9.761240478515624,0.9666762351989746,0.11017322540283203,1.0152156352996826
1789729839083177000,9.771177001953125,1.5108139514923096,-0.4264822006225586,0.9966645240783691
1789729839093113300,9.78111328125,2.2186503410339355,-0.8337411880493164,0.795128345489502
1789729839103049700,9.7910498046875,2.7711122035980225,-1.001969337463379,0.46544358134269714
1789729839112986400,9.800986328125,2.8912572860717773,-1.0293951034545898,0.30464866757392883
1789729839122923000,9.810923095703124,2.4665470123291016,-0.9386482238769531,0.2989625334739685
1789729839132859600,9.820859619140625,1.7340331077575684,-0.6169328689575195,0.2986021041870117
1789729839142796300,9.83079638671875,1.1193301677703857,-0.19736003875732422,0.1286889761686325
1789729839152733000,9.84073291015625,0.6534117460250854,0.1775531768798828,-0.0634651929140091
1789729839162669600,9.850669677734375,0.3236379623413086,0.4445171356201172,-0.24564209580421448
1789729839172606200,9.860606201171874,0.09445536136627197,0.6045999526977539,-0.38191911578178406
1789729839182542800,9.87054296875,0.005302071571350098,0.8091764450073242,-0.48937851190567017
1789729839192479500,9.8804794921875,0.03461647033691406,0.9222497940063477,-0.5305477380752563
1789729839202416000,9.890416015625,0.11434268951416016,0.8628826141357422,-0.38612791895866394
1789729839212353000,9.90035302734375,0.25073814392089844,0.8179817199707031,-0.14595076441764832
1789729839222289700,9.91028955078125,0.534328818321228,0.7727336883544922,-0.02485012263059616
1789729839232226300,9.920226318359376,0.746169924736023,0.5950756072998047,-0.09393677860498428
1789729839242163000,9.930162841796875,1.0814930200576782,0.5168924331665039,-0.27421098947525024
1789729839252099600,9.940099609375,1.2886463403701782,0.33878421783447266,-0.28783905506134033
1789729839262036200,9.9500361328125,1.493456482887268,0.24663639068603516,-0.41895127296447754
1789729839271972900,9.959972900390625,1.4538393020629883,0.4854907989501953,-0.5327050685882568
1789729839281909500,9.969909423828126,1.1968642473220825,0.8226604461669922,-0.5274694561958313
1789729839291847200,9.97984716796875,0.7080287933349609,1.127100944519043,-0.4375017285346985
1789729839301783800,9.98978369140625,0.35146021842956543,1.5145082473754883,-0.44672268629074097
1789729839311720400,9.999720458984376,0.13531649112701416,1.839644432067871,-0.4589500427246094
1789729839321657000,10.009656982421875,0.06138157844543457,1.9120769500732422,-0.3444432318210602
1789729839331593700,10.01959375,0.22066044807434082,1.706563949584961,-0.16872626543045044
1789729839341530400,10.0295302734375,0.7298169136047363,1.2304801940917969,0.007174454629421234
1789729839351467000,10.039467041015625,1.3124780654907227,0.6934213638305664,0.09360495209693909
1789729839361403600,10.049403564453126,1.7964375019073486,0.3400611877441406,0.10581496357917786
1789729839371340000,10.059340087890625,1.9024536609649658,0.20941162109375,0.056908950209617615
1789729839381276700,10.069276611328124,1.4229166507720947,0.1958627700805664,0.026486903429031372
1789729839391213300,10.07921337890625,0.7649567127227783,0.2601938247680664,-0.00027789175510406494
1789729839401150500,10.089150390625,0.2580413818359375,0.23191070556640625,-0.04100581258535385
1789729839411087000,10.099087158203124,0.158372163772583,0.0045757293701171875,-0.04663143306970596
1789729839421023700,10.109023681640625,0.4394052028656006,-0.3832406997680664,0.01826481521129608
1789729839430960400,10.11896044921875,0.9524400234222412,-0.9298791885375977,0.05593472719192505
1789729839440896800,10.128896728515626,1.4046566486358643,-1.4619207382202148,-0.022625476121902466
1789729839450833400,10.13883349609375,1.560115098953247,-1.7774391174316406,-0.12333731353282928
1789729839460770300,10.148770263671874,1.28202486038208,-1.9249534606933594,-0.14552877843379974
1789729839470707500,10.15870751953125,0.7306559085845947,-1.8897628784179688,-0.05193963646888733
1789729839480643300,10.168643310546875,0.19388747215270996,-1.7382550239562988,0.10105153918266296
1789729839490579200,10.1785791015625,-0.21979665756225586,-1.5057497024536133,0.21944227814674377
1789729839500515600,10.188515625,-0.46535730361938477,-1.232579231262207,0.2925536632537842
1789729839510452000,10.198451904296874,-0.5861268043518066,-0.9877147674560547,0.3528463542461395
1789729839520388900,10.208388916015625,-0.44037890434265137,-0.8569097518920898,0.3353577256202698
1789729839530326500,10.218326416015625,-0.15120840072631836,-0.8636846542358398,0.22778502106666565
1789729839540263700,10.228263671875,0.24624180793762207,-0.8955984115600586,0.09828664362430573
1789729839550200300,10.238200439453125,0.6183005571365356,-0.8264875411987305,-0.06179923564195633
1789729839560137000,10.248136962890625,0.8676869869232178,-0.7336702346801758,-0.11918916553258896
1789729839570073600,10.258073486328126,0.9459091424942017,-0.6461715698242188,-0.06641917675733566
1789729839580010000,10.268010009765625,0.8480864763259888,-0.5376062393188477,0.006538748741149902
1789729839589947100,10.277947021484374,0.7161606550216675,-0.44349193572998047,0.04737861454486847
1789729839599883500,10.287883544921876,0.6874672174453735,-0.4471397399902344,0.055460527539253235
1789729839609820000,10.29781982421875,0.7571728229522705,-0.5268230438232422,0.06126183271408081
1789729839619756300,10.30775634765625,0.8510897159576416,-0.47687530517578125,-0.012217670679092407
1789729839629693000,10.31769287109375,1.0342977046966553,-0.3359518051147461,-0.0922265350818634
1789729839639629300,10.32762939453125,1.1674116849899292,-0.1978321075439453,-0.040921345353126526
1789729839649565700,10.337565673828125,1.2006984949111938,0.01863384246826172,0.0689840167760849
1789729839659502300,10.34750244140625,1.1585456132888794,0.2797203063964844,0.14600513875484467
1789729839669439500,10.357439453125,1.0397565364837646,0.4087657928466797,0.19584472477436066
1789729839679377000,10.367376953125,0.9519891738891602,0.4615621566772461,0.279160737991333
1789729839689313500,10.3773134765625,1.0491688251495361,0.37166309356689453,0.323108434677124
1789729839699250200,10.387250244140626,1.2417633533477783,0.1080160140991211,0.32813915610313416
1789729839709186800,10.397186767578125,1.3695502281188965,-0.3294486999511719,0.2387828528881073
1789729839719123500,10.40712353515625,1.4768025875091553,-0.5629415512084961,0.07057876139879227
1789729839729060400,10.417060302734376,1.6144475936889648,-0.8344326019287109,-0.1398417204618454
1789729839738997000,10.4269970703125,1.5701749324798584,-0.7693109512329102,-0.4124607443809509
1789729839748933600,10.43693359375,1.390122413635254,-0.31352806091308594,-0.6802290678024292
1789729839758870500,10.44687060546875,1.0993669033050537,0.27660083770751953,-0.6660351157188416
1789729839768806700,10.456806640625,0.7111613750457764,0.6861343383789062,-0.4051630198955536
1789729839778743000,10.466742919921876,0.4833800792694092,0.8186521530151367,-0.07893052697181702
1789729839788679200,10.47667919921875,0.7031307220458984,0.8926019668579102,0.07740644365549088
1789729839798615600,10.486615478515626,1.0344018936157227,0.9387617111206055,-0.06529951095581055
1789729839808552000,10.496552001953125,1.2669706344604492,1.0307331085205078,-0.24029098451137543
1789729839818489900,10.50648974609375,1.2936885356903076,0.9695405960083008,-0.1865496188402176
1789729839828427000,10.516427001953126,1.2630605697631836,0.6695652008056641,0.034518033266067505
1789729839838363600,10.52636376953125,1.383749008178711,0.4108152389526367,0.13206472992897034
1789729839848300300,10.53630029296875,1.608457326889038,0.4146690368652344,0.031080514192581177
1789729839858237000,10.54623681640625,1.6859996318817139,0.4123106002807617,0.02813684195280075
1789729839868173600,10.556173583984375,1.5587430000305176,0.24140548706054688,0.2836647927761078
1789729839878108400,10.5661083984375,1.421062707901001,-0.0039997100830078125,0.5233047604560852
1789729839888043800,10.576043701171875,1.3474900722503662,-0.2229318618774414,0.5889120101928711
1789729839897979600,10.585979736328126,1.3177027702331543,-0.4008674621582031,0.4540799856185913
1789729839907916000,10.595916015625,1.3042256832122803,-0.47845458984375,0.23741227388381958
1789729839917853200,10.605853271484374,1.2063112258911133,-0.4946260452270508,0.019600197672843933
1789729839927790600,10.61579052734375,0.9957447052001953,-0.46631431579589844,-0.11507222056388855
1789729839937728500,10.625728515625,0.6705420017242432,-0.536473274230957,-0.14427661895751953
1789729839947666400,10.63566650390625,0.3688547611236572,-0.6515684127807617,-0.24971404671669006
1789729839957604600,10.6456044921875,0.19616031646728516,-0.7011041641235352,-0.46936336159706116
1789729839967539500,10.65553955078125,0.12962651252746582,-0.6539487838745117,-0.6578428149223328
1789729839977474600,10.665474609375,0.1363818645477295,-0.5248880386352539,-0.7132328748703003
1789729839987410000,10.675409912109375,0.06848549842834473,-0.42653656005859375,-0.6563306450843811
1789729839997346000,10.685345947265626,0.05195188522338867,-0.2965269088745117,-0.6268379092216492
1789729840007282700,10.69528271484375,0.1779036521911621,-0.11114883422851562,-0.5763625502586365
1789729840017220000,10.70522021484375,0.3413715362548828,0.04040718078613281,-0.47880008816719055
1789729840027158000,10.715157958984374,0.38553380966186523,0.20287132263183594,-0.4743174910545349
1789729840037096200,10.72509619140625,0.24515318870544434,0.32573795318603516,-0.45615866780281067
1789729840047033900,10.735033935546875,-0.17323970794677734,0.20670509338378906,-0.2704331576824188
1789729840056970500,10.744970458984374,-0.36351048946380615,-0.1355915069580078,0.0519554503262043
1789729840066907100,10.7549072265625,-0.03577423095703125,-0.4757547378540039,0.3252570629119873
1789729840076843800,10.76484375,0.44400596618652344,-0.6573381423950195,0.3129395842552185
1789729840086780400,10.774780517578124,0.7899675369262695,-0.5721464157104492,0.09706509113311768
1789729840096717000,10.784717041015625,0.7899734973907471,-0.4197244644165039,0.048322685062885284
1789729840106653700,10.79465380859375,0.44466137886047363,-0.33344554901123047,0.1608242392539978
1789729840116590300,10.80459033203125,0.016358375549316406,-0.27834129333496094,0.3706316649913788
1789729840126527200,10.81452734375,-0.31203174591064453,-0.21959304809570312,0.5129176378250122
1789729840136463600,10.824463623046874,-0.37198519706726074,-0.13982582092285156,0.4461551904678345
1789729840146400000,10.83439990234375,-0.23058462142944336,-0.0009737014770507812,0.3090176582336426
1789729840156336600,10.844336669921875,-0.1104745864868164,0.1317901611328125,0.16294699907302856
1789729840166273000,10.85427294921875,-0.1251838207244873,0.16745758056640625,0.0893973708152771
1789729840176209400,10.86420947265625,-0.25823163986206055,0.08016204833984375,0.13340547680854797
1789729840186146000,10.87414599609375,-0.30046701431274414,0.0713186264038086,0.08637148141860962
1789729840196082700,10.884082763671875,0.017000675201416016,0.2002277374267578,0.08088915050029755
1789729840206019600,10.89401953125,0.5073792934417725,0.1690959930419922,0.1848437488079071
1789729840215956200,10.903956298828126,1.0282011032104492,0.1082601547241211,0.24806924164295197
1789729840225893400,10.913893310546875,1.481931209564209,0.13350772857666016,0.2256464809179306
1789729840235830800,10.923830810546875,1.608642578125,0.153045654296875,0.14588399231433868
1789729840245767400,10.933767333984376,1.4985675811767578,0.11461639404296875,0.06500506401062012
1789729840255704000,10.9437041015625,1.2137360572814941,0.09559440612792969,0.06300468742847443
1789729840265640700,10.953640625,0.839017391204834,0.01569366455078125,0.0389704555273056
1789729840275577300,10.963577392578125,0.6152293682098389,0.033557891845703125,-0.011150270700454712
1789729840285513500,10.973513427734375,0.5007431507110596,0.005732536315917969,-0.03437568247318268
1789729840295449600,10.98344970703125,0.34270405769348145,-0.027133941650390625,-0.06334972381591797
1789729840305386000,10.993385986328125,0.16449451446533203,0.028308868408203125,-0.14976049959659576
1789729840315322400,11.003322265625,-0.14176535606384277,0.14325618743896484,-0.1159321591258049
1789729840325259000,11.013259033203125,-0.5189716815948486,0.23459529876708984,-0.16345667839050293
1789729840335196200,11.023196044921875,-0.7715877294540405,0.42014503479003906,-0.2867807447910309
1789729840345133000,11.033133056640626,-0.7697634696960449,0.5566015243530273,-0.3704516887664795
1789729840355070200,11.0430703125,-0.519883394241333,0.5218973159790039,-0.31761103868484497
1789729840365007400,11.05300732421875,-0.12183642387390137,0.3204383850097656,-0.21549257636070251
1789729840374944300,11.0629443359375,0.2656080722808838,0.04250144958496094,-0.10326968133449554
1789729840384881400,11.07288134765625,0.5335655212402344,-0.3101158142089844,0.08775481581687927
1789729840394817300,11.0828173828125,0.6433994770050049,-0.7662830352783203,0.3385723829269409
1789729840404754200,11.092754150390626,0.7035307884216309,-1.1968259811401367,0.509672999382019
1789729840414690800,11.10269091796875,0.569730281829834,-1.3774890899658203,0.5141525268554688
1789729840424627700,11.112627685546874,0.294903039932251,-1.146291732788086,0.19478964805603027
1789729840434564400,11.122564453125,-0.14699649810791016,-0.6612339019775391,-0.16660550236701965
1789729840444501200,11.132501220703125,-0.7587707042694092,-0.287200927734375,-0.3086373805999756
1789729840454438000,11.14243798828125,-1.37550950050354,-0.18488121032714844,-0.13049739599227905
1789729840464374500,11.15237451171875,-1.79852294921875,-0.12299156188964844,0.09837819635868073
1789729840474311200,11.162311279296874,-1.84788978099823,0.1452169418334961,0.024221375584602356
1789729840484247800,11.172247802734375,-1.5522428750991821,0.4732322692871094,-0.1053265780210495
1789729840494184400,11.182184326171875,-1.096784234046936,0.5590143203735352,-0.15693873167037964
1789729840504121000,11.19212109375,-0.6034868955612183,0.41412353515625,-0.05662558972835541
1789729840514057700,11.2020576171875,-0.06236624717712402,0.11928176879882812,0.07246240973472595
1789729840523994400,11.211994384765624,0.28782081604003906,-0.11352825164794922,0.08194684982299805
1789729840533931300,11.22193115234375,0.2586498260498047,-0.151092529296875,-0.04461175203323364
1789729840543868000,11.231867919921875,-0.11699438095092773,-0.08910751342773438,-0.23169124126434326
1789729840553804500,11.241804443359374,-0.5963480472564697,-0.007587432861328125,-0.28683897852897644
1789729840563741200,11.2517412109375,-0.7808128595352173,-0.17961978912353516,-0.14991255104541779
1789729840573677800,11.261677734375,-0.48639166355133057,-0.49852943420410156,0.1602877825498581
1789729840583614500,11.271614501953126,0.29842567443847656,-0.5302963256835938,0.3273274004459381
1789729840593551000,11.281551025390625,1.1571176052093506,-0.46434688568115234,0.42822265625
1789729840603487700,11.29148779296875,1.7309212684631348,-0.35344505310058594,0.445393830537796
1789729840613424400,11.30142431640625,1.7643063068389893,-0.09184932708740234,0.24987901747226715
1789729840623361800,11.31136181640625,1.146547794342041,0.045248985290527344,-0.027828574180603027
1789729840633298700,11.321298583984374,0.5454785823822021,0.31525230407714844,-0.8597218990325928
1789729840643234600,11.331234619140625,-0.029749155044555664,1.2593765258789062,-1.3321399688720703
1789729840653170700,11.341170654296874,-0.7242114543914795,0.9934043884277344,-0.531165599822998
1789729840663106600,11.3511064453125,-0.4229717254638672,0.2926301956176758,-0.03421656787395477
1789729840673043200,11.361043212890625,0.6493175029754639,0.41306400299072266,0.07756035029888153
1789729840682980600,11.370980712890624,1.3929414749145508,0.6799497604370117,0.09089180827140808
1789729840692918500,11.38091845703125,1.7831497192382812,0.46428680419921875,0.36702901124954224
1789729840702855200,11.390855224609375,1.9621257781982422,-0.15114402770996094,0.6841346025466919
1789729840712791800,11.400791748046874,2.11023211479187,-0.5311260223388672,0.6242653131484985
1789729840722728400,11.410728515625,1.9846646785736084,-0.5180740356445312,0.2510390877723694
1789729840732665000,11.4206650390625,1.6365562677383423,-0.4875497817993164,-0.10304949432611465
1789729840742602000,11.43060205078125,1.2583757638931274,-0.47982311248779297,-0.13123616576194763
1789729840752538600,11.44053857421875,0.7489304542541504,-0.4994964599609375,-0.010561272501945496
1789729840762475300,11.450475341796874,0.40584003925323486,-0.3432025909423828,0.01505310833454132
1789729840772412000,11.460411865234375,0.4909796714782715,0.12202072143554688,-0.07038912177085876
1789729840782348500,11.4703486328125,0.7374676465988159,0.3540515899658203,-0.0477997362613678
1789729840792285200,11.48028515625,0.6949342489242554,0.13042545318603516,0.1480981558561325
1789729840802221800,11.490221923828125,0.726489782333374,-0.2297658920288086,0.30358612537384033
1789729840812158500,11.500158447265624,0.9493416547775269,-0.5565433502197266,0.20041914284229279
1789729840822095000,11.51009521484375,1.1204227209091187,-0.7975587844848633,0.07313767075538635
1789729840832031700,11.52003173828125,1.0161566734313965,-0.9407358169555664,0.10050024092197418
1789729840841968600,11.52996875,0.7314188480377197,-0.9975423812866211,0.24342882633209229
1789729840851905300,11.5399052734375,0.3554137945175171,-0.9769725799560547,0.32678115367889404
1789729840861842000,11.549842041015625,-0.001395106315612793,-0.8234949111938477,0.3795331120491028
1789729840871778600,11.559778564453126,-0.1559746265411377,-0.5827398300170898,0.44961220026016235
1789729840881715200,11.569715087890625,-0.12402284145355225,-0.4774627685546875,0.5298348665237427
1789729840891651800,11.57965185546875,0.10760068893432617,-0.5100498199462891,0.680741012096405
1789729840901588500,11.58958837890625,0.6101478338241577,-0.6328468322753906,0.8037859797477722
1789729840911525000,11.599525146484375,1.2423758506774902,-0.7820472717285156,0.6942456364631653
1789729840921461800,11.609461669921876,1.662908911705017,-0.836639404296875,0.4104665517807007
1789729840931398700,11.619398681640625,1.6205146312713623,-0.7874984741210938,0.1770326942205429
1789729840941335300,11.629335205078124,1.2251254320144653,-0.6820058822631836,0.01928040385246277
1789729840951272000,11.63927197265625,0.7678835391998291,-0.5025033950805664,-0.14192518591880798
1789729840961208600,11.64920849609375,0.3946266174316406,-0.1503734588623047,-0.2045484483242035
1789729840971145500,11.6591455078125,0.20007479190826416,0.23582935333251953,-0.1699187159538269
1789729840981082400,11.669082275390625,0.2368413209915161,0.48383617401123047,-0.0740952119231224
1789729840991019500,11.67901953125,0.3865898847579956,0.5267734527587891,0.005471378564834595
1789729841000956400,11.688956298828124,0.6090555191040039,0.5586185455322266,-0.10096173733472824
1789729841010893300,11.698893310546875,0.8539102077484131,0.5913944244384766,-0.2127251923084259
1789729841020829400,11.708829345703125,1.1456283330917358,0.603550910949707,-0.29140645265579224
1789729841030765800,11.718765869140626,1.4197213649749756,0.6281843185424805,-0.3260396718978882
1789729841040702000,11.728701904296875,1.5288822650909424,0.6742677688598633,-0.3750944435596466
1789729841050638300,11.738638427734376,1.491336703300476,0.78216552734375,-0.32053351402282715
1789729841060575000,11.748574951171875,1.4416996240615845,0.9850807189941406,-0.2370387464761734
1789729841070512000,11.75851220703125,1.380883812904358,1.2013359069824219,-0.1646825224161148
1789729841080449800,11.76844970703125,1.2419852018356323,1.3854894638061523,-0.036491796374320984
1789729841090386700,11.77838671875,1.0318934917449951,1.220351219177246,0.4023171365261078
1789729841100323300,11.7883232421875,1.0991851091384888,0.6571321487426758,0.9449804425239563
1789729841110260000,11.798260009765626,1.5893141031265259,-0.16277599334716797,1.283808946609497
1789729841120196600,11.808196533203125,2.2730371952056885,-1.0158138275146484,1.222868800163269
1789729841130134000,11.818134033203124,2.6955275535583496,-1.395273208618164,0.7146729230880737
1789729841140070000,11.82806982421875,2.2271430492401123,-1.2507152557373047,0.0030519217252731323
1789729841150006000,11.838006103515625,0.9036495685577393,-0.8967199325561523,-0.3442188501358032
1789729841159942100,11.847942138671876,-0.6248985528945923,-0.6578683853149414,-0.25558650493621826
1789729841169878800,11.857878662109375,-1.8342732191085815,-0.6671667098999023,-0.02646203339099884
1789729841179816000,11.86781591796875,-2.2039947509765625,-0.5808753967285156,-0.001958593726158142
1789729841189753000,11.877753173828125,-1.63217031955719,-0.3474435806274414,-0.31992414593696594
1789729841199690000,11.88768994140625,-0.7345085144042969,-0.1486797332763672,-0.6123425960540771
1789729841209627100,11.897627197265624,-0.21982884407043457,-0.0988168716430664,-0.7115592956542969
1789729841219564000,11.90756396484375,-0.31752872467041016,-0.16192626953125,-0.6149836778640747
1789729841229500700,11.917500732421875,-0.48945343494415283,-0.25059986114501953,-0.6483877897262573
1789729841239437300,11.927437255859376,-0.35145092010498047,-0.16337966918945312,-0.8219698667526245
1789729841249374000,11.9373740234375,-0.058974504470825195,0.02995777130126953,-0.8495894074440002
1789729841259310600,11.947310546875,0.1244281530380249,0.2427530288696289,-0.7242966294288635
1789729841269247200,11.957247314453125,0.18915283679962158,0.4822196960449219,-0.569494366645813
1789729841279184100,11.96718408203125,0.24638581275939941,0.6363315582275391,-0.38005101680755615
1789729841289120800,11.977120849609374,0.48874759674072266,0.6147975921630859,-0.1780666708946228
1789729841299057400,11.987057373046875,0.957115888595581,0.5130643844604492,-0.062241025269031525
1789729841308994000,11.996994140625,1.480179786682129,0.5450849533081055,-0.04028898477554321
1789729841318930700,12.0069306640625,1.9646024703979492,0.833064079284668,-0.02788129448890686
1789729841328867300,12.016867431640625,2.1105904579162598,1.109548568725586,0.10179848968982697
1789729841338804000,12.026803955078124,1.6591126918792725,1.1955585479736328,0.30715635418891907
1789729841348739800,12.03673974609375,1.0015904903411865,1.3038616180419922,0.3836473226547241
1789729841358676700,12.0466767578125,0.5867414474487305,1.369410514831543,0.3103976547718048
1789729841368613400,12.05661328125,0.4440622329711914,1.185257911682129,0.2895595133304596
1789729841378550000,12.066550048828125,0.6448235511779785,0.9001340866088867,0.2751597464084625
1789729841388486700,12.076486572265624,1.080923080444336,0.5130958557128906,0.21855959296226501
1789729841398423300,12.08642333984375,1.4417076110839844,0.0254669189453125,0.14344564080238342
1789729841408360000,12.09635986328125,1.5816514492034912,-0.3815155029296875,0.004059910774230957
1789729841418296600,12.106296630859376,1.5185463428497314,-0.6747121810913086,-0.11234243214130402
1789729841428233200,12.116233154296875,1.272718906402588,-0.8396186828613281,-0.14718346297740936
1789729841438169900,12.126169921875,0.8945519924163818,-0.9881868362426758,-0.1821216642856598
1789729841448106800,12.136106689453126,0.4452059268951416,-1.0549964904785156,-0.20591893792152405
1789729841458043400,12.14604345703125,0.2126607894897461,-1.0201845169067383,-0.20284469425678253
1789729841467980000,12.15597998046875,0.32379841804504395,-1.099264144897461,-0.15845075249671936
1789729841477917000,12.1659169921875,0.5615453720092773,-1.3525772094726562,-0.10666202008724213
1789729841487853600,12.175853515625,0.8575921058654785,-1.598991870880127,-0.07880076766014099
1789729841497790500,12.18579052734375,1.0593056678771973,-1.6934194564819336,-0.10456398129463196
1789729841507727000,12.19572705078125,1.1176602840423584,-1.4930229187011719,-0.1371653527021408
1789729841517664000,12.2056640625,0.8736236095428467,-1.1820716857910156,-0.0280667245388031
1789729841527600600,12.2156005859375,0.4067525863647461,-0.8887557983398438,0.263540118932724
1789729841537537500,12.22553759765625,0.029009103775024414,-0.6307830810546875,0.540870189666748
1789729841547474200,12.23547412109375,-0.04778122901916504,-0.5030937194824219,0.6536214351654053
1789729841557411000,12.2454111328125,0.09014725685119629,-0.4266996383666992,0.5760232210159302
1789729841567347700,12.25534765625,0.298412561416626,-0.39710521697998047,0.36920279264450073
1789729841577284600,12.26528466796875,0.5336403846740723,-0.3214120864868164,0.10482332110404968
1789729841587221200,12.27522119140625,0.6730284690856934,-0.26929569244384766,-0.02559340000152588
1789729841597158100,12.285158203125,0.6656651496887207,-0.3216819763183594,0.11332100629806519
1789729841607095000,12.295094970703126,0.7971057891845703,-0.5281963348388672,0.36524534225463867
1789729841617031700,12.30503173828125,1.2875359058380127,-0.7291355133056641,0.4135220944881439
1789729841626968600,12.314968505859374,1.7589941024780273,-0.8115816116333008,0.19225606322288513
1789729841636905200,12.3249052734375,1.9609858989715576,-0.7052593231201172,-0.08417567610740662
1789729841646842000,12.334842041015625,1.6927330493927002,-0.47786903381347656,-0.2143963873386383
1789729841656778800,12.34477880859375,0.8803222179412842,-0.2453899383544922,-0.13820898532867432
1789729841666715600,12.354715576171875,0.03733110427856445,0.05688762664794922,0.03836175799369812
1789729841676652300,12.36465234375,-0.4649074077606201,0.3016843795776367,0.2910967469215393
1789729841686589200,12.374589111328126,-0.3762819766998291,0.5373687744140625,0.3612578511238098
1789729841696525800,12.38452587890625,0.10200953483581543,0.8438749313354492,0.251326322555542
1789729841706462700,12.394462646484374,0.43590235710144043,1.1286649703979492,0.18502482771873474
1789729841716399400,12.4043994140625,0.4096348285675049,1.2672348022460938,0.32955124974250793
1789729841726336300,12.414336181640625,0.3315601348876953,1.2678194046020508,0.5618568062782288
1789729841736273000,12.42427294921875,0.48148107528686523,1.2149677276611328,0.6864467859268188
1789729841746209800,12.434209716796875,0.884376049041748,1.0511608123779297,0.7575116157531738
1789729841756146400,12.444146484375,1.429110050201416,0.7805061340332031,0.8310943245887756
1789729841766082600,12.45408251953125,1.9466915130615234,0.537999153137207,0.8204469680786133
1789729841776019000,12.46401904296875,2.265101432800293,0.4298219680786133,0.6988860964775085
1789729841785955300,12.473955322265626,2.272136688232422,0.5697469711303711,0.494926780462265
1789729841795892000,12.48389208984375,1.8503749370574951,0.790135383605957,0.3521774411201477
1789729841805828900,12.493828857421875,1.0830938816070557,0.8606233596801758,0.32114121317863464
