time,seconds_elapsed,z,y,x
1789729829591396400,0.279396240234375,-0.11903978884220123,-0.10852061212062836,-0.01491326279938221
1789729829601357300,0.289357421875,-0.12756165862083435,-0.1255643367767334,-0.01384802907705307
1789729829611318000,0.299318115234375,-0.14567062258720398,-0.1362166702747345,-0.03834838792681694
1789729829621279000,0.309279052734375,-0.164844810962677,-0.12130340933799744,-0.07137060910463333
1789729829631241000,0.319240966796875,-0.18401899933815002,-0.09467258304357529,-0.10758853703737259
1789729829641222000,0.329221923828125,-0.20212796330451965,-0.06484606117010117,-0.14487169682979584
1789729829651203600,0.33920361328125,-0.21384553611278534,-0.031823836266994476,-0.16298064589500427
1789729829661200400,0.349200439453125,-0.2170412242412567,-0.004127778112888336,-0.15658925473690033
1789729829671215000,0.359215087890625,-0.2191716879606247,-0.005193010903894901,-0.1384802907705307
1789729829681234400,0.369234375,-0.2276935577392578,-0.037150003015995026,-0.12356702983379364
1789729829691275300,0.379275146484375,-0.23195448517799377,-0.06910699605941772,-0.10865376889705658
1789729829701316600,0.389316650390625,-0.2287587970495224,-0.10532491654157639,-0.10119713842868805
1789729829711364000,0.399364013671875,-0.22130216658115387,-0.13195574283599854,-0.08841434121131897
1789729829721411600,0.40941162109375,-0.2191716879606247,-0.14899946749210358,-0.06710968166589737
1789729829731217000,0.419216796875,-0.23088926076889038,-0.17136935889720917,-0.04367455467581749
1789729829741031200,0.42903125,-0.24367205798625946,-0.18095645308494568,-0.01491326279938221
1789729829750850600,0.4388505859375,-0.24686774611473083,-0.15006470680236816,0.01171756349503994
1789729829760673300,0.44867333984375,-0.24473728239536285,-0.10212921351194382,0.02556559257209301
1789729829770498800,0.458498779296875,-0.23621542751789093,-0.057389430701732635,0.02450035884976387
1789729829780326700,0.46832666015625,-0.22236739099025726,-0.020106272771954536,0.012782796286046505
1789729829790179800,0.478179931640625,-0.20532366633415222,-0.0009320789249613881,-0.0031956990715116262
1789729829800033500,0.488033447265625,-0.19041040539741516,-0.004127778112888336,-0.01704372838139534
1789729829809888300,0.49788818359375,-0.18295377492904663,-0.025432437658309937,-0.02450035884976387
1789729829819759000,0.507759033203125,-0.1744319051504135,-0.058454662561416626,-0.0213046595454216
1789729829829630200,0.517630126953125,-0.16164910793304443,-0.09041165560483932,-0.0021304660476744175
1789729829839504000,0.52750390625,-0.1446053832769394,-0.11171631515026093,0.03089175745844841
1789729829849380600,0.537380615234375,-0.12862688302993774,-0.12876003980636597,0.06710968166589737
1789729829859265000,0.54726513671875,-0.11477886140346527,-0.14260807633399963,0.09906667470932007
1789729829869149700,0.557149658203125,-0.09986559301614761,-0.14473854005336761,0.1267627328634262
1789729829879036000,0.567035888671875,-0.08495233207941055,-0.12876003980636597,0.14274121820926666
1789729829888926500,0.576926513671875,-0.07643046975135803,-0.11597724258899689,0.1384802907705307
1789729829898816800,0.586816650390625,-0.07536523789167404,-0.10745538026094437,0.11291470378637314
1789729829908710100,0.596710205078125,-0.07536523789167404,-0.10106398165225983,0.07669677585363388
1789729829926678800,0.6146787109375,-0.06098458915948868,-0.1149120107293129,0.0053261648863554
1789729829936615000,0.624614990234375,-0.06631075590848923,-0.12130340933799744,0.0005326165119186044
1789729829946552000,0.634552001953125,-0.07802832126617432,-0.10905323177576065,0.01704372838139534
1789729829956488200,0.64448828125,-0.0908111184835434,-0.09946613013744354,0.043141938745975494
1789729829966421000,0.6544208984375,-0.10306129604578018,-0.10106398165225983,0.07083799690008163
1789729829976354800,0.664354736328125,-0.11051792651414871,-0.09573781490325928,0.09746882319450378
1789729829986289400,0.674289306640625,-0.11424624174833298,-0.08668334037065506,0.12250179797410965
1789729829996225500,0.6842255859375,-0.12170287221670151,-0.07549838721752167,0.1496652364730835
1789729830006163000,0.694162841796875,-0.13927921652793884,-0.058454662561416626,0.1704372763633728
1789729830016101600,0.7041015625,-0.1536598652601242,-0.03874785080552101,0.1821548491716385
1789729830026040800,0.714040771484375,-0.15845340490341187,-0.02703028731048107,0.17842653393745422
1789729830035980300,0.723980224609375,-0.15898603200912476,-0.02916075475513935,0.16351327300071716
1789729830045915400,0.733915283203125,-0.1552577167749405,-0.03235645219683647,0.14007814228534698
1789729830055850800,0.743850830078125,-0.1430075317621231,-0.03288906812667847,0.11824086308479309
1789729830065786000,0.7537861328125,-0.1318225860595703,-0.033954303711652756,0.10439283400774002
1789729830075722200,0.76372216796875,-0.12436595559120178,-0.025432437658309937,0.11451254785060883
1789729830085658400,0.773658447265625,-0.12117026001214981,-0.012117025442421436,0.15339355170726776
1789729830095595300,0.78359521484375,-0.12809427082538605,-0.006790860556066036,0.20079642534255981
1789729830105532700,0.79353271484375,-0.13608351349830627,-0.011051792651414871,0.245536208152771
1789729830115470800,0.803470947265625,-0.1424749195575714,-0.015312724746763706,0.2780258059501648
1789729830125407700,0.81340771484375,-0.14886631071567535,-0.02276935614645481,0.2972000241279602
1789729830137844000,0.825843994140625,-0.14993155002593994,-0.019041040912270546,0.3174394369125366
1789729830147780600,0.835780517578125,-0.15632294118404388,-0.014780107885599136,0.3217003643512726
1789729830157717000,0.845717041015625,-0.16697527468204498,-0.011584409512579441,0.3419398069381714
1789729830167653400,0.8556533203125,-0.17869283258914948,-0.013714875094592571,0.37602725625038147
1789729830177589800,0.86558984375,-0.18827994167804718,-0.022236740216612816,0.4335498511791229
1789729830187529200,0.875529296875,-0.19041040539741516,-0.017975807189941406,0.5262250900268555
1789729830197468700,0.88546875,-0.1872147023677826,0.006524552125483751,0.63700932264328
1789729830207426300,0.89542626953125,-0.1850842386484146,0.026763979345560074,0.7328802943229675
1789729830217387000,0.905386962890625,-0.1861494779586792,0.037416309118270874,0.7967942953109741
1789729830227373300,0.915373291015625,-0.19147562980651855,0.034220609813928604,0.8298165202140808
1789729830237363200,0.92536328125,-0.20106273889541626,0.031024912372231483,0.8383383750915527
1789729830247355400,0.93535546875,-0.21064983308315277,0.041677240282297134,0.8351426720619202
1789729830257350400,0.945350341796875,-0.2170412242412567,0.07363422960042953,0.8383383750915527
1789729830267347000,0.955346923828125,-0.21491076052188873,0.10772168636322021,0.8521864414215088
1789729830277343500,0.965343505859375,-0.2191716879606247,0.12156971544027328,0.8766867518424988
1789729830287340000,0.975340087890625,-0.23728065192699432,0.15033100545406342,0.8937305212020874
1789729830297353500,0.985353515625,-0.25752007961273193,0.19933173060417175,0.8905348181724548
1789729830309339000,0.9973388671875,-0.28787922859191895,0.27549588680267334,0.7999899983406067
1789729830319149800,1.00714990234375,-0.29640108346939087,0.28721344470977783,0.7302172183990479
1789729830328973000,1.01697314453125,-0.3049229383468628,0.2989310026168823,0.6449986100196838
1789729830338825500,1.026825439453125,-0.31770575046539307,0.3021267056465149,0.5858781337738037
1789729830348701200,1.036701171875,-0.32942330837249756,0.2904091477394104,0.5693670511245728
1789729830358603500,1.046603515625,-0.32889068126678467,0.2786915898323059,0.6013240218162537
1789729830368535600,1.05653564453125,-0.3049229383468628,0.270169734954834,0.6631075739860535
1789729830378516500,1.0665166015625,-0.2692376375198364,0.26377832889556885,0.7382065057754517
1789729830388529200,1.076529052734375,-0.23515018820762634,0.2664414048194885,0.8015878796577454
1789729830398559700,1.086559814453125,-0.20212796330451965,0.27230018377304077,0.8447297811508179
1789729830408596200,1.09659619140625,-0.164844810962677,0.30585503578186035,0.8740236759185791
1789729830418532900,1.106532958984375,-0.12436595559120178,0.3442034125328064,0.8857412338256836
1789729830428469200,1.11646923828125,-0.08495233207941055,0.3740299344062805,0.8862738609313965
1789729830438405600,1.126405517578125,-0.05246272683143616,0.42196542024612427,0.8931978940963745
1789729830448342000,1.136342041015625,-0.030092833563685417,0.44540056586265564,0.89692622423172
1789729830458278400,1.1462783203125,-0.027962366119027138,0.4075847864151001,0.888404369354248
1789729830468214800,1.15621484375,-0.04234301298856735,0.34899696707725525,0.8750889301300049
1789729830478151400,1.1661513671875,-0.06151720881462097,0.3021267056465149,0.8596430420875549
1789729830488087800,1.176087890625,-0.07057169079780579,0.27230018377304077,0.8585777878761292
1789729830498024700,1.186024658203125,-0.06790860742330551,0.28348514437675476,0.8777520060539246
1789729830507960300,1.195960205078125,-0.05459319427609444,0.3207682967185974,0.8995893001556396
1789729830517896700,1.205896728515625,-0.03648423030972481,0.34633389115333557,0.9123721122741699
1789729830527833600,1.21583349609375,-0.022103585302829742,0.37243208289146423,0.9123721122741699
1789729830537770000,1.22577001953125,-0.017310036346316338,0.3995955288410187,0.8947957158088684
1789729830547706600,1.23570654296875,-0.012516488321125507,0.41450878977775574,0.8575125932693481
1789729830557643000,1.24564306640625,-0.013581721112132072,0.39107367396354675,0.8282186985015869
1789729830567579400,1.255579345703125,-0.011451254598796368,0.3436708152294159,0.8111749291419983
1789729830577515800,1.265515869140625,-0.006657706573605537,0.30638766288757324,0.8058487772941589
1789729830587452200,1.2754521484375,0.0050598569214344025,0.2685718834400177,0.8010552525520325
1789729830597388800,1.285388916015625,0.03169068321585655,0.2371474951505661,0.7957290410995483
1789729830607325200,1.2953251953125,0.06204982474446297,0.19773387908935547,0.7845441102981567
1789729830617261600,1.305261474609375,0.07430000603199005,0.1194392517209053,0.7584459185600281
1789729830627198000,1.315197998046875,0.08069140464067459,0.03049229457974434,0.7254236936569214
1789729830637134300,1.32513427734375,0.09187635034322739,-0.05579157918691635,0.6876079440116882
1789729830647070700,1.33507080078125,0.09613727778196335,-0.13728190958499908,0.6375419497489929
1789729830657006800,1.3450068359375,0.09240896254777908,-0.20385897159576416,0.5869433879852295
1789729830666943200,1.354943115234375,0.09240896254777908,-0.24007689952850342,0.5400731563568115
1789729830676879600,1.364879638671875,0.09986559301614761,-0.2752295732498169,0.4990616738796234
1789729830686816000,1.37481591796875,0.10199606418609619,-0.3151758313179016,0.46444159746170044
1789729830696752400,1.38475244140625,0.09400681406259537,-0.34233927726745605,0.42982152104377747
1789729830706689300,1.394689208984375,0.07643046975135803,-0.35565468668937683,0.38827744126319885
1789729830716626200,1.404626220703125,0.06364767253398895,-0.339676171541214,0.3387441039085388
1789729830726562600,1.4145625,0.06364767253398895,-0.27736005187034607,0.2892107665538788
1789729830736499000,1.4244990234375,0.07110430300235748,-0.19586972892284393,0.2338186502456665
1789729830746435300,1.434435302734375,0.06844121962785721,-0.13781452178955078,0.17469821870326996
1789729830756371700,1.444371826171875,0.05991935729980469,-0.10798799991607666,0.11877348273992538
1789729830766308000,1.45430810546875,0.05352795869112015,-0.09467258304357529,0.06870753318071365
1789729830776244500,1.464244384765625,0.05033225938677788,-0.09147688746452332,0.023967742919921875
1789729830786180900,1.474180908203125,0.05086487531661987,-0.09200949966907501,-0.0053261648863554
1789729830796117200,1.4841171875,0.05619104206562042,-0.08615072071552277,-0.016511112451553345
1789729830806053400,1.494053466796875,0.0588541254401207,-0.0936073511838913,-0.021837277337908745
1789729830815989800,1.50398974609375,0.05459319427609444,-0.12876003980636597,-0.030359141528606415
1789729830825926100,1.513926025390625,0.05246272683143616,-0.1580539494752884,-0.02876129187643528
1789729830835862500,1.523862548828125,0.04713656008243561,-0.1681736707687378,-0.021837277337908745
1789729830845799000,1.533798828125,0.023701434955000877,-0.18255430459976196,-0.026098208501935005
1789729830855735300,1.5437353515625,-0.008255556225776672,-0.19746756553649902,-0.04047885537147522
1789729830865671700,1.553671630859375,-0.03435376659035683,-0.18308693170547485,-0.0633813664317131
1789729830875608000,1.563608154296875,-0.05459319427609444,-0.14154283702373505,-0.10492545366287231
1789729830885544400,1.57354443359375,-0.07270215451717377,-0.08508548885583878,-0.15658925473690033
1789729830895481000,1.583481201171875,-0.08495233207941055,-0.009986559860408306,-0.20399212837219238
1789729830905417500,1.59341748046875,-0.09187635034322739,0.08268871158361435,-0.23168818652629852
1789729830915353900,1.603353759765625,-0.09347419440746307,0.17110306024551392,-0.23807957768440247
1789729830925290200,1.613290283203125,-0.08282186836004257,0.24620197713375092,-0.22156846523284912
1789729830935227000,1.623226806640625,-0.06204982474446297,0.3037245571613312,-0.1906767040491104
1789729830945163300,1.633163330078125,-0.03595161437988281,0.33994248509407043,-0.15073047578334808
1789729830955099600,1.643099609375,-0.014114337973296642,0.34100770950317383,-0.11131685227155685
1789729830965036300,1.653036376953125,-0.0018641578499227762,0.30585503578186035,-0.07935985922813416
1789729830974972700,1.66297265625,-0.0077229393646121025,0.24194104969501495,-0.05645735189318657
1789729830984909000,1.672908935546875,-0.019440501928329468,0.17802706360816956,-0.038881003856658936
1789729830994845400,1.682845458984375,-0.027429750189185143,0.13541774451732635,-0.0213046595454216
1789729831004782800,1.692782958984375,-0.030092833563685417,0.11091738939285278,-0.013315413147211075
1789729831014719500,1.702719482421875,-0.030092833563685417,0.08481918275356293,-0.0159784946590662
1789729831024656000,1.71265576171875,-0.016777420416474342,0.06138405203819275,-0.021837277337908745
1789729831034592300,1.72259228515625,0.009853405877947807,0.044872939586639404,-0.02876129187643528
1789729831044528600,1.732528564453125,0.031158065423369408,0.03528584539890289,-0.033554840832948685
1789729831054465000,1.742465087890625,0.04447348043322563,0.01877473294734955,-0.03728315606713295
1789729831064401400,1.7524013671875,0.05565842613577843,0.000665770610794425,-0.03089175745844841
1789729831074337800,1.762337890625,0.06844121962785721,-0.02489982172846794,-0.02023942768573761
1789729831084274200,1.772274169921875,0.07749570161104202,-0.06804175674915314,-0.0063913981430232525
1789729831094210600,1.78221044921875,0.08069140464067459,-0.12449911236763,0.01118494663387537
1789729831104146700,1.792146728515625,0.0801587849855423,-0.1793586164712906,0.03302222490310669
1789729831114083000,1.8020830078125,0.07270215451717377,-0.21610915660858154,0.05432688444852829
1789729831124019500,1.81201953125,0.05991935729980469,-0.22250054776668549,0.0745663121342659
1789729831133955800,1.821955810546875,0.0370168462395668,-0.21238084137439728,0.0846860259771347
1789729831143892200,1.831892333984375,0.006657706573605537,-0.21291345357894897,0.07350108027458191
1789729831153828600,1.84182861328125,-0.026897134259343147,-0.20439158380031586,0.0532616525888443
1789729831163765000,1.851764892578125,-0.05299534276127815,-0.16018441319465637,0.03089175745844841
1789729831173701400,1.861701416015625,-0.06737598776817322,-0.10692276805639267,0.007456631399691105
1789729831183638000,1.871637939453125,-0.0695064514875412,-0.055258963257074356,-0.01118494663387537
1789729831193574400,1.881574462890625,-0.05938674136996269,-0.0025299284607172012,-0.018641578033566475
1789729831203510800,1.8915107421875,-0.04660394415259361,0.03688369318842888,-0.02236989326775074
1789729831213447400,1.901447509765625,-0.03169068321585655,0.058720968663692474,-0.01438064593821764
1789729831223383800,1.9113837890625,-0.017310036346316338,0.0768299326300621,0.0053261648863554
1789729831233320200,1.9213203125,-0.00452724052593112,0.07629731297492981,0.027163442224264145
1789729831243256800,1.9312568359375,-0.00452724052593112,0.04753602296113968,0.044207170605659485
1789729831253193200,1.941193115234375,-0.008255556225776672,0.013981183059513569,0.058055199682712555
1789729831263129600,1.951129638671875,-0.011983871459960938,-0.007323476951569319,0.06551183015108109
1789729831273066000,1.96106591796875,-0.014646953903138638,-0.02703028731048107,0.060185667127370834
1789729831283002600,1.971002685546875,-0.017310036346316338,-0.033954303711652756,0.051663801074028015
1789729831292939000,1.98093896484375,-0.019973119720816612,-0.033954303711652756,0.03728315606713295
1789729831302875400,1.99087548828125,-0.0370168462395668,-0.04407401755452156,0.015445878729224205
1789729831312812000,2.00081201171875,-0.0583215095102787,-0.060585130006074905,-0.012250179424881935
1789729831322748400,2.01074853515625,-0.07216953486204147,-0.06537867337465286,-0.035685304552316666
1789729831332684800,2.020684814453125,-0.08175663650035858,-0.05898727849125862,-0.05432688444852829
1789729831342621200,2.03062109375,-0.09773512929677963,-0.06697652488946915,-0.07190322875976562
1789729831352557800,2.040557861328125,-0.11424624174833298,-0.08881380409002304,-0.08788172155618668
1789729831362494200,2.050494140625,-0.12543119490146637,-0.09946613013744354,-0.10119713842868805
1789729831372430600,2.0604306640625,-0.12969212234020233,-0.09094426780939102,-0.11344731599092484
1789729831382367200,2.0703671875,-0.12649641931056976,-0.06750914454460144,-0.1177082508802414
1789729831392303600,2.0803037109375,-0.10945269465446472,-0.039813082665205,-0.11504516750574112
1789729831402240000,2.090239990234375,-0.08761541545391083,-0.020106272771954536,-0.10492545366287231
1789729831412176400,2.10017626953125,-0.06364767253398895,-0.005193010903894901,-0.09214265644550323
1789729831422113000,2.110113037109375,-0.03169068321585655,0.015046416781842709,-0.07030537724494934
1789729831432049400,2.12004931640625,0.009320789016783237,0.04647079110145569,-0.04154408723115921
1789729831441985800,2.12998583984375,0.04979964345693588,0.07949301600456238,-0.006924014538526535
1789729831451922400,2.13992236328125,0.08388710021972656,0.08055824786424637,0.02876129187643528
1789729831461858800,2.14985888671875,0.10998530685901642,0.04860125854611397,0.06178351491689682
1789729831471795200,2.159795166015625,0.12596380710601807,0.004926702938973904,0.09001219272613525
1789729831481731600,2.169731689453125,0.1339530497789383,-0.04993279650807381,0.1065233051776886
1789729831491668200,2.179668212890625,0.13927921652793884,-0.09147688746452332,0.10758853703737259
1789729831501604600,2.1896044921875,0.14140968024730682,-0.09999874979257584,0.09800143539905548
1789729831511541000,2.199541015625,0.13501828908920288,-0.09573781490325928,0.07137060910463333
1789729831521477600,2.2094775390625,0.12063764035701752,-0.08934641629457474,0.035685304552316666
1789729831531414000,2.2194140625,0.10359390825033188,-0.09573781490325928,0.004260932095348835
1789729831541350400,2.229350341796875,0.08814803510904312,-0.11970555782318115,-0.012782796286046505
1789729831551287000,2.239287109375,0.07749570161104202,-0.12769481539726257,-0.004260932095348835
1789729831561223400,2.249223388671875,0.06471290439367294,-0.11118369549512863,0.0079892473295331
1789729831571159800,2.259159912109375,0.04979964345693588,-0.08561810106039047,0.01118494663387537
1789729831581096200,2.26909619140625,0.03648423030972481,-0.03342168778181076,0.009587096981704235
1789729831591032800,2.27903271484375,0.022636201232671738,0.01770949922502041,-0.01384802907705307
1789729831600969200,2.28896923828125,0.0034620072692632675,0.04114462435245514,-0.05752258375287056
1789729831610905600,2.298905517578125,-0.014114337973296642,0.061916667968034744,-0.09374050796031952
1789729831620842200,2.30884228515625,-0.022636201232671738,0.066177599132061,-0.1278279572725296
1789729831630778600,2.318778564453125,-0.022103585302829742,0.05392742156982422,-0.15179570019245148
1789729831640715000,2.328715087890625,-0.018375270068645477,0.040612008422613144,-0.15605664253234863
1789729831650652400,2.33865234375,-0.016244804486632347,0.031024912372231483,-0.14061075448989868
1789729831660588800,2.3485888671875,-0.023168819025158882,0.02623136341571808,-0.11344731599092484
1789729831670525200,2.358525146484375,-0.03275591507554054,0.015046416781842709,-0.09161003679037094
1789729831680461800,2.3684619140625,-0.04021254554390907,-0.0030625448562204838,-0.08308817446231842
1789729831690397400,2.3783974609375,-0.04287562891840935,-0.004660394508391619,-0.08308817446231842
1789729831700333300,2.388333251953125,-0.03648423030972481,0.019307348877191544,-0.08681648969650269
1789729831710269700,2.398269775390625,-0.025831900537014008,0.03901416063308716,-0.09267527610063553
1789729831720206300,2.408206298828125,-0.020505735650658607,0.04007939249277115,-0.10332760214805603
1789729831730143200,2.418143310546875,-0.021570969372987747,0.02942706272006035,-0.12090394645929337
1789729831740080600,2.42808056640625,-0.025831900537014008,0.011850717477500439,-0.13688243925571442
1789729831750017000,2.43801708984375,-0.03222329914569855,-0.014780107885599136,-0.14433906972408295
1789729831759953400,2.447953369140625,-0.04021254554390907,-0.03448691964149475,-0.1390129029750824
1789729831769890300,2.457890380859375,-0.0482017956674099,-0.03235645219683647,-0.12516488134860992
1789729831779826000,2.467825927734375,-0.05406057462096214,-0.02063889056444168,-0.1070559173822403
1789729831789761300,2.47776123046875,-0.0583215095102787,-0.008921326138079166,-0.08841434121131897
1789729831799697200,2.487697265625,-0.05352795869112015,-0.001997311832383275,-0.07243584841489792
1789729831809633300,2.49763330078125,-0.04607132822275162,-0.001997311832383275,-0.0639139786362648
1789729831819569700,2.507569580078125,-0.0375494658946991,-0.004127778112888336,-0.0644465982913971
1789729831829506300,2.51750634765625,-0.029560215771198273,-0.015312724746763706,-0.0745663121342659
1789729831839443200,2.527443115234375,-0.023168819025158882,-0.031823836266994476,-0.08947957307100296
1789729831849380400,2.53738037109375,-0.019973119720816612,-0.043541401624679565,-0.10758853703737259
1789729831859317200,2.547317138671875,-0.023168819025158882,-0.04940018057823181,-0.12037133425474167
1789729831869254400,2.55725439453125,-0.03328853100538254,-0.05259587988257408,-0.13528458774089813
1789729831879190800,2.567190673828125,-0.04340824484825134,-0.04300878196954727,-0.14487169682979584
1789729831889127400,2.57712744140625,-0.04979964345693588,-0.008388710208237171,-0.14646953344345093
1789729831899063800,2.587063720703125,-0.06045197322964668,0.03262276202440262,-0.14487169682979584
1789729831909000200,2.597000244140625,-0.07962616533041,0.06138405203819275,-0.15605664253234863
1789729831918936800,2.606936767578125,-0.09507204592227936,0.07523208111524582,-0.17523083090782166
1789729831928874500,2.61687451171875,-0.1014634445309639,0.07949301600456238,-0.19653549790382385
1789729831938808300,2.626808349609375,-0.10039821267127991,0.07203638553619385,-0.2114487588405609
1789729831948742700,2.63674267578125,-0.09613727778196335,0.04966649040579796,-0.21730753779411316
1789729831958677200,2.64667724609375,-0.08495233207941055,0.019307348877191544,-0.20878566801548004
1789729831968612900,2.65661279296875,-0.07216953486204147,-0.014247491955757141,-0.18801362812519073
1789729831978549500,2.666549560546875,-0.0583215095102787,-0.04513924941420555,-0.16511112451553345
1789729831988486700,2.676486572265625,-0.04394086077809334,-0.06484606117010117,-0.1374150663614273
1789729831998424600,2.686424560546875,-0.027962366119027138,-0.059519894421100616,-0.10545806586742401
1789729832008363300,2.69636328125,-0.014114337973296642,-0.044606633484363556,-0.0750989317893982
1789729832018301200,2.70630126953125,-0.0061250897124409676,-0.03555215150117874,-0.055924732238054276
1789729832028237800,2.71623779296875,-0.002929390873759985,-0.02276935614645481,-0.0426093190908432
1789729832038174200,2.72617431640625,0.002929390873759985,-0.010519175790250301,-0.03515268862247467
1789729832048110600,2.736110595703125,0.012516488321125507,-0.004660394508391619,-0.037815771996974945
1789729832058047000,2.746046875,0.024766668677330017,-0.001997311832383275,-0.049533337354660034
1789729832067983600,2.755983642578125,0.0375494658946991,-0.008921326138079166,-0.06497921794652939
1789729832077919700,2.765919677734375,0.0482017956674099,-0.022236740216612816,-0.07243584841489792
1789729832087856400,2.7758564453125,0.05991935729980469,-0.02596505545079708,-0.0639139786362648
1789729832097793000,2.78579296875,0.07216953486204147,-0.030758604407310486,-0.049533337354660034
1789729832107729400,2.7957294921875,0.08601756393909454,-0.03235645219683647,-0.025032976642251015
1789729832117665800,2.805665771484375,0.10039821267127991,-0.016910573467612267,0.0079892473295331
1789729832127602200,2.815602294921875,0.10465914756059647,-0.008388710208237171,0.0319569893181324
1789729832137538800,2.825538818359375,0.09986559301614761,-0.015312724746763706,0.03302222490310669
1789729832147475200,2.83547509765625,0.09400681406259537,-0.015312724746763706,0.016511112451553345
1789729832157412000,2.845412109375,0.09134373068809509,-0.006258244160562754,-0.0037283156998455524
1789729832167347700,2.85534765625,0.0902784988284111,0.004394086077809334,-0.01704372838139534
1789729832177283300,2.865283447265625,0.09400681406259537,0.0011983871227130294,-0.027163442224264145
1789729832187219200,2.87521923828125,0.1014634445309639,-0.015845341607928276,-0.02982652559876442
1789729832197155000,2.885155029296875,0.11318100988864899,-0.027562905102968216,-0.020772043615579605
1789729832207091500,2.895091552734375,0.12063764035701752,-0.03608476743102074,-0.0079892473295331
1789729832217028000,2.905028076171875,0.12330072373151779,-0.04513924941420555,0.007456631399691105
1789729832226965000,2.914965087890625,0.12117026001214981,-0.03768261894583702,0.032489608973264694
1789729832236902100,2.924902099609375,0.11371362209320068,-0.016910573467612267,0.058055199682712555
1789729832246839600,2.934839599609375,0.09560466557741165,-0.007323476951569319,0.07616416364908218
1789729832256776200,2.944776123046875,0.07802832126617432,-0.007856093347072601,0.08894696086645126
1789729832266712000,2.954712158203125,0.06684337556362152,-0.0009320789249613881,0.0958709716796875
1789729832276647700,2.964647705078125,0.05725627392530441,0.009187635034322739,0.09480573982000351
1789729832286583800,2.974583740234375,0.0482017956674099,0.009720250964164734,0.08149032294750214
1789729832296520400,2.9845205078125,0.04074516147375107,0.00226362026296556,0.05965305119752884
1789729832306457000,2.99445703125,0.03328853100538254,-0.006790860556066036,0.033554840832948685
1789729832316394000,3.00439404296875,0.021038351580500603,-0.024367205798625946,0.010119713842868805
1789729832326331400,3.014331298828125,0.00719032296910882,-0.04194355010986328,-0.0015978495357558131
1789729832336268500,3.0242685546875,-0.008788172155618668,-0.043541401624679565,0.0079892473295331
1789729832346204000,3.034203857421875,-0.024234050884842873,-0.02276935614645481,0.036750540137290955
1789729832356139300,3.04413916015625,-0.03435376659035683,0.0001331541279796511,0.06924014538526535
1789729832366075000,3.054074951171875,-0.03595161437988281,0.015579032711684704,0.09001219272613525
1789729832376010800,3.0640107421875,-0.025831900537014008,0.02303566411137581,0.0958709716796875
1789729832385948200,3.0739482421875,-0.009320789016783237,0.027829213067889214,0.09214265644550323
1789729832395885600,3.083885498046875,0.002929390873759985,0.01983996480703354,0.07669677585363388
1789729832405823000,3.093822998046875,0.006657706573605537,-0.00359516148455441,0.0532616525888443
1789729832415759600,3.103759521484375,0.008255556225776672,-0.02809552103281021,0.025032976642251015
1789729832425696000,3.113696044921875,0.010386021807789803,-0.05259587988257408,0.0031956990715116262
1789729832435632400,3.12363232421875,0.013049104250967503,-0.06963960826396942,-0.00585878174751997
1789729832445569000,3.133569091796875,0.013049104250967503,-0.08348763734102249,-0.004260932095348835
1789729832455505400,3.14350537109375,0.00719032296910882,-0.09200949966907501,0.007456631399691105
1789729832465441300,3.153441162109375,-0.0018641578499227762,-0.06697652488946915,0.031424373388290405
1789729832475377000,3.163376953125,-0.011983871459960938,-0.007856093347072601,0.06071828305721283
1789729832485313000,3.17331298828125,-0.030625449493527412,0.04753602296113968,0.08308817446231842
1789729832495249200,3.183249267578125,-0.04607132822275162,0.0768299326300621,0.09320788830518723
1789729832505185500,3.193185546875,-0.05565842613577843,0.08641702681779861,0.08894696086645126
1789729832515122200,3.2031220703125,-0.06204982474446297,0.1205044835805893,0.08255556225776672
1789729832525059000,3.21305908203125,-0.0695064514875412,0.1423417627811432,0.07563154399394989
1789729832534996000,3.222995849609375,-0.08495233207941055,0.1205044835805893,0.05965305119752884
1789729832544932900,3.232932861328125,-0.11477886140346527,0.06777545064687729,0.03941362351179123
1789729832554870000,3.2428701171875,-0.1552577167749405,0.011850717477500439,0.02023942768573761
1789729832564806400,3.252806396484375,-0.1968017965555191,-0.02703028731048107,0.0021304660476744175
1789729832574742500,3.262742431640625,-0.22716094553470612,-0.048867564648389816,-0.02556559257209301
1789729832584679000,3.272678955078125,-0.2383458912372589,-0.04993279650807381,-0.05432688444852829
1789729832594615000,3.282614990234375,-0.22662831842899323,-0.008388710208237171,-0.08042509108781815
1789729832604551200,3.29255126953125,-0.19893226027488708,0.04434032365679741,-0.11025162041187286
1789729832614487600,3.302487548828125,-0.1659100502729416,0.06937330216169357,-0.1390129029750824
1789729832624424000,3.312423828125,-0.12702903151512146,0.07043853402137756,-0.16138280928134918
1789729832634360800,3.32236083984375,-0.08175663650035858,0.061916667968034744,-0.17629607021808624
1789729832644298200,3.33229833984375,-0.024234050884842873,0.036351077258586884,-0.18428531289100647
1789729832654234600,3.342234619140625,0.04021254554390907,-0.006258244160562754,-0.18748101592063904
1789729832664169700,3.352169677734375,0.10359390825033188,-0.06378082931041718,-0.18535055220127106
1789729832674105000,3.36210498046875,0.16218173503875732,-0.11970555782318115,-0.17363297939300537
1789729832684040700,3.372040771484375,0.2085193693637848,-0.17456506192684174,-0.15552401542663574
1789729832693976800,3.381976806640625,0.24313943088054657,-0.2209026962518692,-0.13049104809761047
1789729832703913500,3.39191357421875,0.26391148567199707,-0.2315550297498703,-0.09480573982000351
1789729832713850400,3.401850341796875,0.2708354890346527,-0.2102503627538681,-0.05858781561255455
1789729832723787800,3.411787841796875,0.26763978600502014,-0.18628261983394623,-0.03089175745844841
1789729832733725200,3.42172509765625,0.26604193449020386,-0.15965180099010468,-0.012782796286046505
1789729832743663400,3.431663330078125,0.2612484097480774,-0.12822742760181427,0.0005326165119186044
1789729832753599000,3.441598876953125,0.2388785034418106,-0.11224892735481262,0.0037283156998455524
1789729832763534800,3.451534912109375,0.1968017965555191,-0.12077079713344574,-0.004260932095348835
1789729832773470700,3.461470703125,0.13927921652793884,-0.1351514458656311,-0.018641578033566475
1789729832783406600,3.471406494140625,0.0689738392829895,-0.13994498550891876,-0.03941362351179123
1789729832793343200,3.48134326171875,-0.016777420416474342,-0.1351514458656311,-0.06817491352558136
1789729832803280100,3.491280029296875,-0.09347419440746307,-0.10532491654157639,-0.09906667470932007
1789729832813217000,3.501217041015625,-0.14886631071567535,-0.039813082665205,-0.12516488134860992
1789729832823154200,3.511154296875,-0.1866820901632309,0.03848154470324516,-0.1480673849582672
1789729832833091000,3.521091064453125,-0.21064983308315277,0.11038476973772049,-0.16777420043945312
1789729832843027500,3.53102734375,-0.22556309401988983,0.1625811904668808,-0.17629607021808624
1789729832852964000,3.540964111328125,-0.22556309401988983,0.19666863977909088,-0.17363297939300537
1789729832862900500,3.550900390625,-0.21171505749225616,0.20785360038280487,-0.15658925473690033
1789729832872836900,3.5608369140625,-0.18881255388259888,0.18921200931072235,-0.13102366030216217
1789729832882773500,3.5707734375,-0.15898603200912476,0.14873315393924713,-0.09853405505418777
1789729832892710000,3.5807099609375,-0.12649641931056976,0.09600412845611572,-0.06764229387044907
1789729832902646300,3.590646240234375,-0.08761541545391083,0.03954677656292915,-0.047402869910001755
1789729832912583000,3.6005830078125,-0.03808208182454109,-0.006258244160562754,-0.034620072692632675
1789729832922518500,3.6105185546875,0.016244804486632347,-0.033954303711652756,-0.02343512699007988
1789729832932454100,3.6204541015625,0.07057169079780579,-0.040345702320337296,-0.012782796286046505
1789729832942390000,3.63039013671875,0.11637670546770096,-0.03874785080552101,-0.00585878174751997
1789729832952326100,3.640326171875,0.15738818049430847,-0.037150003015995026,0.0021304660476744175
1789729832962262500,3.650262451171875,0.19147562980651855,-0.033954303711652756,0.012782796286046505
1789729832972199400,3.660199462890625,0.2170412242412567,-0.029693370684981346,0.02556559257209301
1789729832982136300,3.67013623046875,0.23248711228370667,-0.03874785080552101,0.034620072692632675
1789729832992073500,3.680073486328125,0.24367205798625946,-0.048867564648389816,0.045272402465343475
1789729833002011100,3.69001123046875,0.2521939277648926,-0.06271559745073318,0.05539211630821228
1789729833011947500,3.699947509765625,0.24686774611473083,-0.08934641629457474,0.0633813664317131
1789729833021884000,3.7098837890625,0.2170412242412567,-0.12982527911663055,0.06071828305721283
1789729833031820300,3.7198203125,0.16857312619686127,-0.1671084314584732,0.0532616525888443
1789729833041757200,3.729757080078125,0.1115831583738327,-0.16231487691402435,0.0532616525888443
1789729833051693000,3.739693115234375,0.03967992961406708,-0.10692276805639267,0.053794268518686295
1789729833061629000,3.74962890625,-0.05352795869112015,-0.04993279650807381,0.030359141528606415
1789729833071564800,3.759564697265625,-0.14194230735301971,-0.012117025442421436,-0.023967742919921875
1789729833081501200,3.769501220703125,-0.1957365721464157,0.03262276202440262,-0.09320788830518723
1789729833091438000,3.77943798828125,-0.21650861203670502,0.08694964647293091,-0.16351327300071716
1789729833101374700,3.789374755859375,-0.21224768459796906,0.1300915777683258,-0.22156846523284912
1789729833111311600,3.7993115234375,-0.1866820901632309,0.15885287523269653,-0.2600499987602234
1789729833121249300,3.809249267578125,-0.1446053832769394,0.19933173060417175,-0.2605826258659363
1789729833131184400,3.819184326171875,-0.09294158220291138,0.2483324557542801,-0.22423155605793
1789729833141120000,3.8291201171875,-0.03861469775438309,0.27656111121177673,-0.16670896112918854
1789729833151056400,3.839056396484375,0.013049104250967503,0.2776263654232025,-0.09746882319450378
1789729833160992800,3.84899267578125,0.05512581020593643,0.24513675272464752,-0.027163442224264145
1789729833170929400,3.858929443359375,0.08761541545391083,0.17962491512298584,0.038881003856658936
1789729833180866300,3.8688662109375,0.10572437942028046,0.12103710323572159,0.10066451877355576
1789729833190803700,3.8788037109375,0.10359390825033188,0.07949301600456238,0.1395455300807953
1789729833200740400,3.888740234375,0.08655018359422684,0.028894444927573204,0.14327384531497955
1789729833210677000,3.898677001953125,0.07270215451717377,-0.01637795753777027,0.12090394645929337
1789729833220613400,3.90861328125,0.06631075590848923,-0.028628136962652206,0.08202294260263443
1789729833230549800,3.9185498046875,0.05991935729980469,0.0011983871227130294,0.033554840832948685
1789729833240486400,3.928486328125,0.05672365799546242,0.05392742156982422,-0.016511112451553345
1789729833250422800,3.9384228515625,0.06045197322964668,0.09387365728616714,-0.07296846061944962
1789729833260359200,3.948359130859375,0.06844121962785721,0.10292813926935196,-0.1278279572725296
1789729833270295600,3.958295654296875,0.08175663650035858,0.1087869256734848,-0.1581871062517166
1789729833280232200,3.968232177734375,0.09826774895191193,0.1300915777683258,-0.15712186694145203
1789729833290168600,3.97816845703125,0.10732222348451614,0.14820054173469543,-0.1262301206588745
1789729833300105000,3.98810498046875,0.11051792651414871,0.14500483870506287,-0.07882724702358246
1789729833310041600,3.99804150390625,0.11051792651414871,0.12529803812503815,-0.0159784946590662
1789729833319978000,4.00797802734375,0.11477886140346527,0.11464570462703705,0.0633813664317131
1789729833329914400,4.017914306640625,0.11797455698251724,0.1194392517209053,0.1395455300807953
1789729833339850800,4.027850830078125,0.11637670546770096,0.10825430601835251,0.19440503418445587
1789729833349787400,4.037787353515625,0.12330072373151779,0.08588441461324692,0.2231663167476654
1789729833359723800,4.047723876953125,0.14567062258720398,0.08694964647293091,0.23754696547985077
1789729833369660200,4.05766015625,0.1744319051504135,0.10505861043930054,0.23701435327529907
1789729833379596800,4.0675966796875,0.20053011178970337,0.11091738939285278,0.222101092338562
1789729833389533200,4.077533203125,0.24260681867599487,0.11304785311222076,0.21837277710437775
1789729833399469600,4.087469482421875,0.30705341696739197,0.13595037162303925,0.24713405966758728
1789729833409406200,4.09740625,0.37043479084968567,0.15672241151332855,0.2977326214313507
1789729833419342600,4.107342529296875,0.41464194655418396,0.13754820823669434,0.35738566517829895
1789729833429279000,4.117279052734375,0.4444684684276581,0.08428656309843063,0.4356802999973297
1789729833439215400,4.12721533203125,0.4434032440185547,0.02729659713804722,0.5251598954200745
1789729833449152000,4.137152099609375,0.4066527187824249,-0.014247491955757141,0.597595751285553
1789729833459088400,4.14708837890625,0.35126060247421265,-0.037150003015995026,0.6412702798843384
1789729833469024800,4.157024658203125,0.29799893498420715,-0.045671865344047546,0.6561835408210754
1789729833478961400,4.16696142578125,0.23621542751789093,-0.06005251035094261,0.6306179761886597
1789729833488897800,4.176897705078125,0.17017097771167755,-0.0723026916384697,0.5688344240188599
1789729833498834200,4.186834228515625,0.11690932512283325,-0.042476166039705276,0.4894745647907257
1789729833508770600,4.1967705078125,0.07216953486204147,0.04434032365679741,0.39786452054977417
1789729833518707200,4.206707275390625,0.027429750189185143,0.16098333895206451,0.29134124517440796
1789729833528643600,4.2166435546875,-0.014114337973296642,0.2802894413471222,0.191741943359375
1789729833538580000,4.226580078125,-0.04553871229290962,0.3846822679042816,0.11131685227155685
1789729833548516600,4.2365166015625,-0.07536523789167404,0.4597811996936798,0.051663801074028015
1789729833558453000,4.246452880859375,-0.10252867639064789,0.49972742795944214,0.018641578033566475
1789729833568389400,4.256389404296875,-0.11318100988864899,0.5082492828369141,0.027163442224264145
1789729833578325800,4.26632568359375,-0.11637670546770096,0.5130428671836853,0.06604444980621338
1789729833588262400,4.276262451171875,-0.12596380710601807,0.5061188340187073,0.11983871459960938
1789729833598198800,4.28619873046875,-0.13555090129375458,0.46404212713241577,0.19547025859355927
1789729833608135200,4.29613525390625,-0.13555090129375458,0.40332385897636414,0.27323228120803833
1789729833618071800,4.30607177734375,-0.12809427082538605,0.34952959418296814,0.33714625239372253
1789729833628008200,4.31600830078125,-0.112115778028965,0.31597474217414856,0.3861469626426697
1789729833637944600,4.325944580078125,-0.08122401684522629,0.28614822030067444,0.4074516296386719
1789729833647881000,4.335880859375,-0.05672365799546242,0.28614822030067444,0.39040789008140564
1789729833657817600,4.345817626953125,-0.05938674136996269,0.30532240867614746,0.3499290347099304
1789729833667754000,4.35575390625,-0.07163692265748978,0.3010614812374115,0.2886781394481659
1789729833677690400,4.3656904296875,-0.06737598776817322,0.29680055379867554,0.19493764638900757
1789729833687627000,4.375626953125,-0.05991935729980469,0.29786577820777893,0.07350108027458191
1789729833697563400,4.3855634765625,-0.07643046975135803,0.27176758646965027,-0.046337638050317764
1789729833707499800,4.395499755859375,-0.11637670546770096,0.22969086468219757,-0.14007814228534698
1789729833717436400,4.4054365234375,-0.16111649572849274,0.21051667630672455,-0.20026381313800812
1789729833727373600,4.41537353515625,-0.19520394504070282,0.25312599539756775,-0.17523083090782166
1789729833737310200,4.425310302734375,-0.22076953947544098,0.34686651825904846,-0.07616416364908218
1789729833747246600,4.43524658203125,-0.21011722087860107,0.3351489305496216,0.03621792420744896
1789729833757183000,4.445182861328125,-0.18295377492904663,0.32769230008125305,0.11291470378637314
1789729833767119600,4.45511962890625,-0.14194230735301971,0.3644428551197052,0.1688394397497177
1789729833777055500,4.465055419921875,-0.1014634445309639,0.3655080795288086,0.19440503418445587
1789729833786991400,4.474991455078125,-0.06311506032943726,0.34793174266815186,0.1821548491716385
1789729833796927500,4.484927490234375,-0.026897134259343147,0.3452686667442322,0.16830681264400482
1789729833806864400,4.494864501953125,0.0007989247678779066,0.3122464418411255,0.19387240707874298
1789729833816801300,4.50480126953125,0.0370168462395668,0.22170162200927734,0.24926452338695526
1789729833826738200,4.51473828125,0.07962616533041,0.10772168636322021,0.3083849549293518
1789729833836675000,4.524675048828125,0.06844121962785721,0.04007939249277115,0.4021254777908325
1789729833846611500,4.534611572265625,0.03808208182454109,-0.07762885838747025,0.48255056142807007
1789729833856547000,4.544547119140625,0.026364516466856003,-0.2533923089504242,0.5390079021453857
1789729833866483700,4.554483642578125,0.013581721112132072,-0.38601380586624146,0.5805519819259644
1789729833876420000,4.564420166015625,-0.017842652276158333,-0.4568518102169037,0.598660945892334
1789729833886356500,4.5743564453125,-0.05352795869112015,-0.49040666222572327,0.5848129391670227
1789729833896293000,4.584293212890625,-0.0790935531258583,-0.45951488614082336,0.536877453327179
1789729833906229500,4.5942294921875,-0.09294158220291138,-0.38441595435142517,0.4596480429172516
1789729833916166000,4.604165771484375,-0.10998530685901642,-0.44140592217445374,0.36484232544898987
1789729833926102300,4.614102294921875,-0.14993155002593994,-0.41637295484542847,0.3328853249549866
1789729833936039000,4.624038818359375,-0.22716094553470612,-0.28108835220336914,0.3217003643512726
1789729833945975300,4.633975341796875,-0.2703028917312622,-0.21930484473705292,0.256721168756485
1789729833955911700,4.64391162109375,-0.18827994167804718,-0.20492419600486755,0.2125139832496643
1789729833965848600,4.6538486328125,-0.08921326696872711,-0.1362166702747345,0.19547025859355927
1789729833975785500,4.663785400390625,-0.07110430300235748,-0.06271559745073318,0.1912093311548233
1789729833985722000,4.67372216796875,-0.08814803510904312,0.024633513763546944,0.19600287079811096
1789729833995658800,4.68365869140625,-0.08228924870491028,0.09653674066066742,0.19600287079811096
1789729834005595100,4.69359521484375,-0.05352795869112015,0.13914605975151062,0.19014409184455872
1789729834015531800,4.70353173828125,-0.030625449493527412,0.1620485782623291,0.19333979487419128
1789729834025468200,4.71346826171875,-0.019973119720816612,0.18814678490161896,0.20505735278129578
1789729834035404500,4.723404541015625,-0.016244804486632347,0.17536398768424988,0.2130466103553772
1789729834045341000,4.7333408203125,-0.019973119720816612,0.11198262125253677,0.20612259209156036
1789729834055277600,4.743277587890625,-0.029027599841356277,0.08109086751937866,0.19653549790382385
1789729834065214000,4.7532138671875,-0.03967992961406708,0.0981345921754837,0.18694838881492615
1789729834075150300,4.763150390625,-0.03808208182454109,0.0874822586774826,0.17256775498390198
1789729834085087000,4.7730869140625,-0.026897134259343147,0.1194392517209053,0.16564373672008514
1789729834095023400,4.7830234375,-0.011983871459960938,0.1828206181526184,0.14593692123889923
1789729834104959700,4.792959716796875,0.021038351580500603,0.24513675272464752,0.11983871459960938
1789729834114896100,4.802896240234375,0.0695064514875412,0.30692026019096375,0.10865376889705658
1789729834124832800,4.812832763671875,0.10465914756059647,0.3511274456977844,0.12516488134860992
1789729834134769200,4.82276904296875,0.112115778028965,0.3559209704399109,0.1587197184562683
1789729834144705500,4.83270556640625,0.10519175976514816,0.31810522079467773,0.21038351953029633
1789729834154642200,4.84264208984375,0.09773512929677963,0.24939768016338348,0.2588516175746918
1789729834164578600,4.85257861328125,0.10625699162483215,0.17802706360816956,0.2956021726131439
1789729834174515000,4.862514892578125,0.13448566198349,0.12636326253414154,0.3312874734401703
1789729834184451300,4.872451416015625,0.17230144143104553,0.11624355614185333,0.36697277426719666
1789729834194388000,4.882387939453125,0.19094301760196686,0.11091738939285278,0.3856143653392792
1789729834204324400,4.892324462890625,0.18934516608715057,0.06404713541269302,0.38881006836891174
1789729834214260700,4.9022607421875,0.1866820901632309,0.0011983871227130294,0.3856143653392792
1789729834224197400,4.912197265625,0.1749645173549652,-0.03129122033715248,0.3744294047355652
1789729834234133800,4.9221337890625,0.16111649572849274,-0.05312849581241608,0.3536573648452759
1789729834244070100,4.932070068359375,0.15845340490341187,-0.07443315535783768,0.348863810300827
1789729834254006800,4.9420068359375,0.1643121987581253,-0.07603100687265396,0.36537492275238037
1789729834263943200,4.951943115234375,0.1659100502729416,-0.08774857223033905,0.3936035931110382
1789729834273879600,4.961879638671875,0.16750788688659668,-0.11171631515026093,0.4266258180141449
1789729834283816000,4.97181591796875,0.17389929294586182,-0.12396649271249771,0.45165881514549255
1789729834293752600,4.981752685546875,0.1749645173549652,-0.10585752874612808,0.45485448837280273
1789729834303689000,4.99168896484375,0.17816022038459778,-0.059519894421100616,0.4468652606010437
1789729834313625300,5.001625244140625,0.18082331120967865,0.009720250964164734,0.4468652606010437
1789729834323562000,5.01156201171875,0.17389929294586182,0.066177599132061,0.45219141244888306
1789729834333498400,5.021498291015625,0.15845340490341187,0.04007939249277115,0.43940863013267517
1789729834343434800,5.031434814453125,0.13661614060401917,-0.07496577501296997,0.4058537781238556
1789729834353371100,5.04137109375,0.08708280324935913,-0.12343387305736542,0.37655988335609436
1789729834363307800,5.051307861328125,0.03222329914569855,-0.1346188187599182,0.2977326214313507
1789729834373244200,5.061244140625,-0.00399462366476655,-0.10852061212062836,0.1688394397497177
1789729834383180500,5.0711806640625,-0.04340824484825134,-0.06591129302978516,-0.0026630824431777
1789729834393117200,5.0811171875,-0.09773512929677963,-0.03342168778181076,-0.17469821870326996
1789729834403053600,5.091053466796875,-0.14034445583820343,0.06884068250656128,-0.29573532938957214
1789729834412990200,5.100990234375,-0.16058388352394104,0.21264714002609253,-0.37829089164733887
1789729834422926800,5.1109267578125,-0.1659100502729416,0.3228987455368042,-0.4374113082885742
1789729834432863200,5.12086328125,-0.15259462594985962,0.4469984173774719,-0.46457475423812866
1789729834442799900,5.1307998046875,-0.12596380710601807,0.5477960705757141,-0.46404212713241577
1789729834452736500,5.140736572265625,-0.09560466557741165,0.5920032262802124,-0.4501941204071045
1789729834462673000,5.1506728515625,-0.0588541254401207,0.602122962474823,-0.42143282294273376
1789729834472609500,5.160609619140625,-0.0018641578499227762,0.586677074432373,-0.3617797791957855
1789729834482546200,5.170546142578125,0.05991935729980469,0.5499265193939209,-0.2770937383174896
1789729834492482800,5.18048291015625,0.112115778028965,0.4794880151748657,-0.1906767040491104
1789729834502419200,5.190419189453125,0.16005125641822815,0.35059481859207153,-0.09320788830518723
1789729834512355800,5.20035595703125,0.21491076052188873,0.22329947352409363,0.022902509197592735
1789729834522292500,5.21029248046875,0.2585853040218353,0.11091738939285278,0.1294258087873459
1789729834532228900,5.220228759765625,0.28521615266799927,-0.033954303711652756,0.19706811010837555
1789729834542165500,5.23016552734375,0.3022598624229431,-0.1777607649564743,0.24234052002429962
1789729834552102100,5.24010205078125,0.29906415939331055,-0.2741643488407135,0.2572537660598755
1789729834562038500,5.25003857421875,0.2830856740474701,-0.3183715343475342,0.24021004140377045
1789729834571975200,5.25997509765625,0.26763978600502014,-0.32209983468055725,0.21784014999866486
1789729834581912000,5.269912109375,0.25698745250701904,-0.29972994327545166,0.20825305581092834
1789729834591848000,5.279847900390625,0.23461757600307465,-0.2741643488407135,0.19760072231292725
1789729834601783600,5.289783447265625,0.197334423661232,-0.2544575333595276,0.1821548491716385
1789729834611719400,5.299719482421875,0.14726845920085907,-0.2091851383447647,0.17256775498390198
1789729834621656300,5.30965625,0.09294158220291138,-0.14260807633399963,0.15552401542663574
1789729834631593700,5.31959375,0.04607132822275162,-0.0925421193242073,0.11344731599092484
1789729834641531400,5.329531494140625,0.006657706573605537,-0.044606633484363556,0.07083799690008163
1789729834651466800,5.339466796875,-0.030092833563685417,0.006524552125483751,0.03941362351179123
1789729834661402000,5.349402099609375,-0.0689738392829895,0.024633513763546944,0.018641578033566475
1789729834671337700,5.359337646484375,-0.10945269465446472,-0.001997311832383275,0.009587096981704235
1789729834681273900,5.36927392578125,-0.1531272530555725,-0.03342168778181076,0.004260932095348835
1789729834691210200,5.379210205078125,-0.20372581481933594,-0.03022598661482334,0.0063913981430232525
1789729834701147400,5.3891474609375,-0.24420467019081116,-0.0238345880061388,0.019706811755895615
1789729834711085000,5.3990849609375,-0.26817241311073303,-0.03022598661482334,0.02769605815410614
1789729834721022700,5.409022705078125,-0.27669426798820496,-0.03342168778181076,0.009587096981704235
1789729834730959400,5.41895947265625,-0.2734985649585724,-0.042476166039705276,-0.029293907806277275
1789729834740896000,5.42889599609375,-0.2703028917312622,-0.054193731397390366,-0.07776200771331787
1789729834750832000,5.43883203125,-0.2697702646255493,-0.04993279650807381,-0.14327384531497955
1789729834760768500,5.4487685546875,-0.2740311920642853,-0.023301972076296806,-0.222101092338562
1789729834770704600,5.45870458984375,-0.2804225981235504,0.0033288532868027687,-0.2877460718154907
1789729834780641000,5.46864111328125,-0.2905423045158386,0.013981183059513569,-0.3516600430011749
1789729834790577200,5.4785771484375,-0.3166405260562897,0.02836182899773121,-0.43315038084983826
1789729834800513500,5.488513427734375,-0.3432713449001312,0.05499265342950821,-0.5151733160018921
1789729834810450200,5.4984501953125,-0.34167349338531494,0.09600412845611572,-0.5945332050323486
1789729834820386800,5.50838671875,-0.31930360198020935,0.12316756695508957,-0.6754909157752991
1789729834830323200,5.5183232421875,-0.27669426798820496,0.10559122264385223,-0.7266221046447754
1789729834840259800,5.528259765625,-0.197334423661232,0.014513799920678139,-0.7181001901626587
1789729834850196500,5.538196533203125,-0.09240896254777908,-0.1367492824792862,-0.6706973314285278
1789729834860132900,5.5481328125,0.00399462366476655,-0.3476654291152954,-0.5940005779266357
1789729834870069500,5.558069580078125,0.08069140464067459,-0.5718969702720642,-0.4693683087825775
1789729834880006100,5.568006103515625,0.14780108630657196,-0.7354102730751038,-0.3037245571613312
1789729834889942500,5.577942626953125,0.1978670358657837,-0.7955959439277649,-0.1294258087873459
1789729834899879200,5.587879150390625,0.23142187297344208,-0.7710955739021301,0.04473978653550148
1789729834909815800,5.59781591796875,0.2516613006591797,-0.6959966421127319,0.19440503418445587
1789729834919752400,5.60775244140625,0.25698745250701904,-0.5676360726356506,0.2982652485370636
1789729834929688800,5.617688720703125,0.25432437658309937,-0.4222317337989807,0.35632044076919556
1789729834939625500,5.62762548828125,0.23728065192699432,-0.316241055727005,0.37975558638572693
1789729834949562000,5.63756201171875,0.19307348132133484,-0.23421810567378998,0.3712337017059326
1789729834959498500,5.64749853515625,0.13075734674930573,-0.16231487691402435,0.33608102798461914
1789729834969435100,5.65743505859375,0.06684337556362152,-0.10053136944770813,0.29240646958351135
1789729834979371800,5.667371826171875,0.005592473316937685,-0.03874785080552101,0.24819929897785187
1789729834989308200,5.67730810546875,-0.06151720881462097,0.024633513763546944,0.1906767040491104
1789729834999244800,5.687244873046875,-0.12862688302993774,0.07416684925556183,0.1166430190205574
1789729835009181400,5.697181396484375,-0.19360610842704773,0.11038476973772049,0.036750540137290955
1789729835019118000,5.7071181640625,-0.24846559762954712,0.1290263533592224,-0.055924732238054276
1789729835029054500,5.717054443359375,-0.2798899710178375,0.1295589655637741,-0.1496652364730835
1789729835038991000,5.7269912109375,-0.2798899710178375,0.1306242048740387,-0.2034595012664795
1789729835048927500,5.736927490234375,-0.24526990950107574,0.1615159511566162,-0.2029268890619278
1789729835058863900,5.74686376953125,-0.1872147023677826,0.19986434280872345,-0.14646953344345093
1789729835068800500,5.756800537109375,-0.12117026001214981,0.20199480652809143,-0.03408745676279068
1789729835078737000,5.76673681640625,-0.05406057462096214,0.15352670848369598,0.10119713842868805
1789729835088673300,5.77667333984375,-0.00133154122158885,0.07097115367650986,0.21997061371803284
1789729835098609700,5.786609619140625,0.03595161437988281,-0.03608476743102074,0.2865476906299591
1789729835108546300,5.79654638671875,0.04873441159725189,-0.10745538026094437,0.29293906688690186
1789729835118482700,5.806482666015625,0.04074516147375107,-0.12876003980636597,0.24234052002429962
1789729835128419000,5.816419189453125,0.017310036346316338,-0.12023817747831345,0.14220860600471497
1789729835138355700,5.826355712890625,-0.015712186694145203,-0.06804175674915314,-0.006924014538526535
1789729835148292000,5.8362919921875,-0.04660394415259361,0.04274247586727142,-0.18801362812519073
1789729835158228500,5.846228515625,-0.05672365799546242,0.18015754222869873,-0.35858407616615295
1789729835168164900,5.856164794921875,-0.04713656008243561,0.31597474217414856,-0.4725640118122101
1789729835178101500,5.8661015625,-0.016244804486632347,0.4310199022293091,-0.5189016461372375
1789729835188038000,5.876037841796875,0.026897134259343147,0.4826837182044983,-0.5050535798072815
1789729835197974300,5.885974365234375,0.09560466557741165,0.47575968503952026,-0.4384765326976776
1789729835207911000,5.895910888671875,0.1760297566652298,0.4070521593093872,-0.34686651825904846
1789729835217847300,5.905847412109375,0.24207420647144318,0.2669740319252014,-0.27602851390838623
1789729835227783700,5.91578369140625,0.3123795986175537,0.07203638553619385,-0.23168818652629852
1789729835237720300,5.92572021484375,0.3890763521194458,-0.13035789132118225,-0.1912093311548233
1789729835247656700,5.93565673828125,0.45618605613708496,-0.29919731616973877,-0.14114338159561157
1789729835257593000,5.945593017578125,0.5003932118415833,-0.42968836426734924,-0.07616416364908218
1789729835267529700,5.95552978515625,0.509980320930481,-0.5186353325843811,0.0079892473295331
1789729835277466400,5.96546630859375,0.48121902346611023,-0.5548532605171204,0.10758853703737259
1789729835287402800,5.97540283203125,0.4226312041282654,-0.5212984085083008,0.19919857382774353
1789729835297339400,5.98533935546875,0.3464670479297638,-0.4105141758918762,0.24127528071403503
1789729835307276000,5.995276123046875,0.2617810070514679,-0.23741380870342255,0.20825305581092834
1789729835317212400,6.00521240234375,0.17230144143104553,-0.05366111174225807,0.10279498994350433
1789729835327149000,6.015149169921875,0.07643046975135803,0.10133028775453568,-0.05113118514418602
1789729835337085700,6.025085693359375,-0.022103585302829742,0.2248973250389099,-0.20079642534255981
1789729835347022000,6.03502197265625,-0.10785484313964844,0.32715970277786255,-0.31650736927986145
1789729835356958700,6.044958740234375,-0.1978670358657837,0.4155740439891815,-0.4049217104911804
1789729835366895600,6.0548955078125,-0.28521615266799927,0.5194342732429504,-0.47575968503952026
1789729835376832500,6.06483251953125,-0.35232582688331604,0.6079817414283752,-0.5396736860275269
1789729835386769200,6.07476904296875,-0.39333727955818176,0.6532541513442993,-0.5870765447616577
1789729835396705500,6.08470556640625,-0.40345701575279236,0.663906455039978,-0.5982614755630493
1789729835406642000,6.094641845703125,-0.3874785006046295,0.6367430686950684,-0.584413468837738
1789729835416578600,6.10457861328125,-0.356586754322052,0.6005251407623291,-0.5593804717063904
1789729835426515200,6.11451513671875,-0.31983622908592224,0.5547201037406921,-0.5332822799682617
1789729835436451600,6.12445166015625,-0.2841508984565735,0.4826837182044983,-0.5194342732429504
1789729835446388200,6.13438818359375,-0.24420467019081116,0.4075847864151001,-0.522629976272583
1789729835456324600,6.14432470703125,-0.18881255388259888,0.32609444856643677,-0.523695170879364
1789729835466261000,6.154260986328125,-0.11957240849733353,0.23022349178791046,-0.5055862069129944
1789729835476197600,6.16419775390625,-0.04607132822275162,0.11624355614185333,-0.4794880151748657
1789729835486134300,6.17413427734375,0.021570969372987747,0.0001331541279796511,-0.47895538806915283
1789729835496071000,6.18407080078125,0.06364767253398895,-0.11864032596349716,-0.5151733160018921
1789729835506007300,6.19400732421875,0.07802832126617432,-0.2507292330265045,-0.5924026966094971
1789729835515943700,6.203943603515625,0.09134373068809509,-0.3684374690055847,-0.6877411007881165
1789729835525880300,6.21388037109375,0.10625699162483215,-0.4467321038246155,-0.7782858610153198
1789729835535817000,6.22381689453125,0.10785484313964844,-0.49147188663482666,-0.8549826741218567
1789729835545753300,6.23375341796875,0.1227681040763855,-0.5095808506011963,-0.906113862991333
1789729835555690000,6.24368994140625,0.14833369851112366,-0.5106461048126221,-0.9423317909240723
1789729835565626600,6.253626708984375,0.17762760818004608,-0.46910199522972107,-0.929548978805542
1789729835575563000,6.26356298828125,0.21118244528770447,-0.3705679476261139,-0.8336780071258545
1789729835585499600,6.273499755859375,0.23035664856433868,-0.2517944574356079,-0.6621754765510559
1789729835595436000,6.28343603515625,0.2181064635515213,-0.10159660130739212,-0.43208515644073486
1789729835605372400,6.293372314453125,0.1856168508529663,0.04753602296113968,-0.19653549790382385
1789729835615308800,6.303308837890625,0.14034445583820343,0.13222205638885498,-0.0063913981430232525
1789729835625245400,6.313245361328125,0.09400681406259537,0.1615159511566162,0.11983871459960938
1789729835635181800,6.323181884765625,0.0482017956674099,0.16471165418624878,0.18322007358074188
1789729835645118200,6.3331181640625,0.00452724052593112,0.16843996942043304,0.20985090732574463
1789729835655054800,6.343054931640625,-0.024234050884842873,0.18015754222869873,0.22795987129211426
1789729835664991200,6.3529912109375,-0.03861469775438309,0.2158428430557251,0.24021004140377045
1789729835674927600,6.362927734375,-0.04394086077809334,0.2675066292285919,0.2226337045431137
1789729835684864000,6.372864013671875,-0.07163692265748978,0.2680392563343048,0.1597849577665329
1789729835694800600,6.382800537109375,-0.13661614060401917,0.20092958211898804,0.09161003679037094
1789729835704737000,6.392737060546875,-0.21970431506633759,0.10239552706480026,0.06604444980621338
1789729835714673400,6.40267333984375,-0.29693371057510376,-0.011051792651414871,0.06977276504039764
1789729835724610000,6.412610107421875,-0.36297816038131714,-0.09786828607320786,0.060185667127370834
1789729835734546400,6.42254638671875,-0.4125114977359772,-0.10532491654157639,0.009587096981704235
1789729835744482800,6.43248291015625,-0.43541398644447327,-0.008921326138079166,-0.06977276504039764
1789729835754419500,6.44241943359375,-0.42476168274879456,0.17802706360816956,-0.17842653393745422
1789729835764355800,6.45235595703125,-0.3864132761955261,0.4102478623390198,-0.29680055379867554
1789729835774292500,6.46229248046875,-0.3256950080394745,0.6282211542129517,-0.4086500108242035
1789729835784229000,6.47222900390625,-0.24580252170562744,0.7762885689735413,-0.4901403486728668
1789729835794165500,6.48216552734375,-0.1446053832769394,0.8465939164161682,-0.5007926821708679
1789729835804102100,6.49210205078125,-0.03222329914569855,0.8497896194458008,-0.4379439353942871
1789729835814038800,6.502038818359375,0.06790860742330551,0.7746906876564026,-0.35006219148635864
1789729835823975400,6.511975341796875,0.14833369851112366,0.6314168572425842,-0.28401774168014526
1789729835833911800,6.521911865234375,0.19360610842704773,0.3979976773262024,-0.26111525297164917
1789729835843848400,6.531848388671875,0.20266057550907135,0.10292813926935196,-0.2691044807434082
1789729835853785000,6.54178515625,0.20106273889541626,-0.17563030123710632,-0.28295251727104187
1789729835863721500,6.551721435546875,0.19999749958515167,-0.3790898025035858,-0.27230018377304077
1789729835873658000,6.561658203125,0.19413872063159943,-0.49306973814964294,-0.23914481699466705
1789729835883594800,6.5715947265625,0.16697527468204498,-0.5276898145675659,-0.21570968627929688
1789729835893531100,6.58153125,0.13501828908920288,-0.4882761836051941,-0.2018616646528244
1789729835903467800,6.5914677734375,0.10412652790546417,-0.4035901725292206,-0.2013290375471115
1789729835913404400,6.601404296875,0.07057169079780579,-0.2944037914276123,-0.20079642534255981
1789729835923340800,6.6113408203125,0.029027599841356277,-0.21238084137439728,-0.1816222369670868
1789729835933277400,6.62127734375,-0.019973119720816612,-0.16338011622428894,-0.1390129029750824
1789729835943214000,6.631214111328125,-0.027962366119027138,-0.1351514458656311,-0.05965305119752884
1789729835953150700,6.641150634765625,0.013049104250967503,-0.10159660130739212,0.07776200771331787
1789729835963087000,6.651087158203125,0.06311506032943726,-0.07549838721752167,0.24766667187213898
1789729835973023700,6.661023681640625,0.09720251709222794,-0.11278154700994492,0.3850817382335663
1789729835982960400,6.67096044921875,0.1115831583738327,-0.19427187740802765,0.46550682187080383
1789729835992896800,6.680896728515625,0.10892007499933243,-0.27842527627944946,0.5001268982887268
1789729836002833400,6.69083349609375,0.09134373068809509,-0.35299158096313477,0.5038552284240723
1789729836012770000,6.70077001953125,0.08441971987485886,-0.4158403277397156,0.4777570068836212
1789729836022706400,6.71070654296875,0.09826774895191193,-0.44832995533943176,0.4053211510181427
1789729836032643000,6.72064306640625,0.12649641931056976,-0.4419385492801666,0.2982652485370636
1789729836042579700,6.730579833984375,0.17389929294586182,-0.36470916867256165,0.1906767040491104
1789729836052516400,6.740516357421875,0.22662831842899323,-0.23581595718860626,0.11451254785060883
1789729836062452700,6.75045263671875,0.24473728239536285,-0.1559234857559204,0.0532616525888443
1789729836072389400,6.760389404296875,0.21650861203670502,-0.12982527911663055,0.09693620353937149
1789729836082326000,6.770325927734375,0.16697527468204498,-0.14420592784881592,0.2130466103553772
1789729836092262400,6.780262451171875,0.10252867639064789,-0.28907760977745056,0.2551233172416687
1789729836102199000,6.790198974609375,0.010386021807789803,-0.49306973814964294,0.1922745555639267
1789729836112135700,6.8001357421875,-0.09400681406259537,-0.6906704902648926,0.09959928691387177
1789729836122072600,6.810072509765625,-0.14993155002593994,-0.795063316822052,0.0750989317893982
1789729836132009000,6.820009033203125,-0.13501828908920288,-0.7998568415641785,0.09427312016487122
1789729836141945000,6.829945068359375,-0.10359390825033188,-0.7013227939605713,0.14487169682979584
1789729836151881700,6.8398818359375,-0.0902784988284111,-0.5015916228294373,0.24340574443340302
1789729836161818400,6.849818359375,-0.12330072373151779,-0.2981320917606354,0.30305880308151245
1789729836171755000,6.859755126953125,-0.1872147023677826,-0.12343387305736542,0.27003657817840576
1789729836181691400,6.86969140625,-0.24526990950107574,0.0017310036346316338,0.1810896098613739
1789729836191628000,6.8796279296875,-0.27722689509391785,0.1290263533592224,0.10066451877355576
1789729836201564700,6.889564697265625,-0.2814878225326538,0.24194104969501495,0.09161003679037094
1789729836211501600,6.89950146484375,-0.2500634491443634,0.3213009238243103,0.12409964948892593
1789729836221438000,6.90943798828125,-0.1968017965555191,0.38148656487464905,0.1384802907705307
1789729836231374300,6.919374267578125,-0.13714875280857086,0.43528082966804504,0.14061075448989868
1789729836241311000,6.92931103515625,-0.06577813625335693,0.4938686490058899,0.15765449404716492
1789729836251247400,6.939247314453125,0.010918638668954372,0.5504591464996338,0.1912093311548233
1789729836261184000,6.94918408203125,0.08974587917327881,0.6042534112930298,0.22582940757274628
1789729836271120600,6.95912060546875,0.15099677443504333,0.6308842301368713,0.24873191118240356
1789729836281057300,6.969057373046875,0.1749645173549652,0.6159709692001343,0.256721168756485
1789729836290994000,6.978993896484375,0.18827994167804718,0.6005251407623291,0.21517707407474518
1789729836300930300,6.988930419921875,0.19999749958515167,0.5925358533859253,0.13528458774089813
1789729836310866700,6.99886669921875,0.1744319051504135,0.541404664516449,0.06764229387044907
1789729836320803800,7.008803955078125,0.1430075317621231,0.43528082966804504,0.017576344311237335
1789729836330739700,7.01873974609375,0.14087706804275513,0.31863781809806824,-0.02982652559876442
1789729836340675600,7.028675537109375,0.13448566198349,0.26484355330467224,-0.06924014538526535
1789729836350611700,7.03861181640625,0.13714875280857086,0.3117138147354126,-0.09959928691387177
1789729836360547800,7.0485478515625,0.17975807189941406,0.4049217104911804,-0.12196917831897736
1789729836370484200,7.058484130859375,0.25379177927970886,0.5375432372093201,-0.12196917831897736
1789729836380420900,7.0684208984375,0.30705341696739197,0.6681674122810364,-0.0852186381816864
1789729836390357800,7.078357666015625,0.3129121959209442,0.6910699009895325,-0.010119713842868805
1789729836400295400,7.08829541015625,0.26550933718681335,0.5691007375717163,0.06071828305721283
1789729836410232300,7.098232421875,0.18827994167804718,0.3298227787017822,0.10758853703737259
1789729836420169000,7.1081689453125,0.09880036115646362,0.047003407031297684,0.14061075448989868
1789729836430105600,7.118105712890625,0.031158065423369408,-0.20385897159576416,0.18748101592063904
1789729836440042000,7.1280419921875,0.018375270068645477,-0.48295003175735474,0.25991687178611755
1789729836449978600,7.137978515625,-0.0034620072692632675,-0.5947995185852051,0.36910325288772583
1789729836459915000,7.1479150390625,0.07856093347072601,-0.44992780685424805,0.5022573471069336
1789729836469851400,7.157851318359375,0.12489857524633408,-0.30984964966773987,0.5704323053359985
1789729836479788000,7.1677880859375,0.132355198264122,-0.22250054776668549,0.5864107608795166
1789729836489724400,7.177724365234375,0.14993155002593994,-0.15059731900691986,0.5896064639091492
1789729836499660800,7.187660888671875,0.11584409326314926,-0.22889193892478943,0.5549864172935486
1789729836509597200,7.19759716796875,0.04074516147375107,-0.37323102355003357,0.4239627420902252
1789729836519533800,7.207533935546875,-0.03222329914569855,-0.4632432162761688,0.2790910601615906
1789729836529470200,7.21747021484375,-0.10306129604578018,-0.48135218024253845,0.20026381313800812
1789729836539406600,7.227406494140625,-0.16164910793304443,-0.39560091495513916,0.18535055220127106
1789729836549343200,7.23734326171875,-0.20159535109996796,-0.19427187740802765,0.18641577661037445
1789729836559279600,7.247279541015625,-0.197334423661232,0.23235395550727844,0.17576344311237335
1789729836569216000,7.257216064453125,-0.15152940154075623,0.6612433791160583,0.1581871062517166
1789729836579152600,7.267152587890625,-0.14034445583820343,0.8982577323913574,0.13208889961242676
1789729836589089300,7.27708935546875,-0.13981182873249054,1.0085093975067139,0.0750989317893982
1789729836599025700,7.287025634765625,-0.10306129604578018,0.9840090274810791,0.016511112451553345
1789729836608962300,7.29696240234375,-0.06258244067430496,0.7927996516227722,-0.07616416364908218
1789729836618899000,7.30689892578125,-0.03648423030972481,0.5247604250907898,-0.1480673849582672
1789729836628835600,7.316835693359375,-0.019973119720816612,0.27176758646965027,-0.13581721484661102
1789729836638772000,7.32677197265625,-0.029027599841356277,0.013981183059513569,-0.0639139786362648
1789729836648709600,7.336709716796875,-0.05512581020593643,-0.18681524693965912,0.035685304552316666
1789729836658646300,7.346646240234375,-0.07696308940649033,-0.3135779798030853,0.15073047578334808
1789729836668583000,7.3565830078125,-0.10465914756059647,-0.34340450167655945,0.26257994771003723
1789729836678519600,7.36651953125,-0.13768136501312256,-0.2501966059207916,0.3291569948196411
1789729836688456200,7.376456298828125,-0.1659100502729416,-0.08188978582620621,0.2977326214313507
1789729836698393000,7.38639306640625,-0.18082331120967865,0.1418091505765915,0.1704372763633728
1789729836708328700,7.39632861328125,-0.16164910793304443,0.3985303044319153,-0.01384802907705307
1789729836718264600,7.4062646484375,-0.1227681040763855,0.6117100715637207,-0.22050324082374573
1789729836728200400,7.416200439453125,-0.08601756393909454,0.723559558391571,-0.38947582244873047
1789729836738137600,7.4261376953125,-0.06418029218912125,0.7033200860023499,-0.4730966091156006
1789729836748075500,7.436075439453125,-0.07003907114267349,0.5834813714027405,-0.4826837182044983
1789729836758012000,7.446011962890625,-0.07962616533041,0.4049217104911804,-0.41450878977775574
1789729836767949000,7.455948974609375,-0.06577813625335693,0.18069015443325043,-0.3010614812374115
1789729836777884700,7.465884765625,-0.013049104250967503,-0.024367205798625946,-0.18694838881492615
1789729836787821000,7.475821044921875,0.05565842613577843,-0.2011958807706833,-0.11131685227155685
1789729836797757700,7.4857578125,0.10039821267127991,-0.3242303133010864,-0.07350108027458191
1789729836807694000,7.495694091796875,0.12809427082538605,-0.33328479528427124,-0.06977276504039764
1789729836817630500,7.50563037109375,0.1435401439666748,-0.25818586349487305,-0.11238208413124084
1789729836827566800,7.51556689453125,0.13927921652793884,-0.1575213372707367,-0.21038351953029633
1789729836837503700,7.525503662109375,0.1430075317621231,-0.059519894421100616,-0.34633389115333557
1789729836847441200,7.535441162109375,0.12543119490146637,-0.007323476951569319,-0.49706435203552246
1789729836857377800,7.545377685546875,0.06631075590848923,-0.020106272771954536,-0.6270228028297424
1789729836867314200,7.555314208984375,0.016777420416474342,-0.08721595257520676,-0.6706973314285278
1789729836877250300,7.565250244140625,0.021570969372987747,-0.13781452178955078,-0.5934679508209229
1789729836887187000,7.57518701171875,0.09240896254777908,-0.14314068853855133,-0.41397619247436523
1789729836897123800,7.585123779296875,0.1877473145723343,-0.12662957608699799,-0.18641577661037445
1789729836907060500,7.595060546875,0.2628462612628937,-0.12876003980636597,0.023967742919921875
1789729836916997000,7.6049970703125,0.3043903410434723,-0.16444534063339233,0.1709699034690857
1789729836926932500,7.614932373046875,0.3033251166343689,-0.19107617437839508,0.2636451721191406
1789729836936868400,7.624868408203125,0.2607157826423645,-0.210782989859581,0.3083849549293518
1789729836946804200,7.63480419921875,0.1877473145723343,-0.21770699322223663,0.32489606738090515
1789729836956740600,7.64474072265625,0.09240896254777908,-0.17669552564620972,0.3115806579589844
1789729836966677800,7.654677734375,-0.00452724052593112,-0.07017222791910172,0.26311254501342773
1789729836976615200,7.664615234375,-0.10519175976514816,0.026763979345560074,0.1800243854522705
1789729836986552800,7.674552734375,-0.21064983308315277,0.09067796170711517,0.07616416364908218
1789729836996489700,7.68448974609375,-0.3123795986175537,0.11624355614185333,-0.0053261648863554
1789729837006426400,7.69442626953125,-0.3789566457271576,0.13328728079795837,-0.0079892473295331
1789729837016362800,7.70436279296875,-0.3768261969089508,0.18921200931072235,0.09107742458581924
1789729837026299400,7.71429931640625,-0.2905423045158386,0.28508299589157104,0.25192761421203613
1789729837036236000,7.724236083984375,-0.1547250896692276,0.31544211506843567,0.3845491111278534
1789729837046172400,7.73417236328125,-0.0370168462395668,0.21158191561698914,0.39786452054977417
1789729837056109000,7.744109130859375,-0.00133154122158885,0.02410089783370495,0.3067871034145355
1789729837066045700,7.754045654296875,-0.05725627392530441,-0.1985328048467636,0.1816222369670868
1789729837075982000,7.763982177734375,-0.1765623688697815,-0.4344819188117981,0.07296846061944962
1789729837085918700,7.773918701171875,-0.29799893498420715,-0.626756489276886,0.02450035884976387
1789729837095855400,7.78385546875,-0.37043479084968567,-0.7231600880622864,0.04047885537147522
1789729837105791700,7.793791748046875,-0.37309786677360535,-0.6986597180366516,0.08255556225776672
1789729837115728400,7.803728271484375,-0.3171731233596802,-0.5500596761703491,0.13155627250671387
1789729837125665000,7.8136650390625,-0.23728065192699432,-0.30186042189598083,0.16511112451553345
1789729837135601700,7.8236015625,-0.1547250896692276,-0.007856093347072601,0.1480673849582672
1789729837145538600,7.83353857421875,-0.08548495173454285,0.24620197713375092,0.09054480493068695
1789729837155474700,7.843474609375,-0.03967992961406708,0.4049217104911804,0.007456631399691105
1789729837165411000,7.8534111328125,-0.015179570764303207,0.47789016366004944,-0.08415340632200241
1789729837175347200,7.86334716796875,-0.016244804486632347,0.46457475423812866,-0.17629607021808624
1789729837185283600,7.87328369140625,-0.04181039705872536,0.37136685848236084,-0.26431095600128174
1789729837195220000,7.883219970703125,-0.07163692265748978,0.23235395550727844,-0.31544211506843567
1789729837205156600,7.893156494140625,-0.06258244067430496,0.13328728079795837,-0.27496325969696045
1789729837215093200,7.90309326171875,0.0034620072692632675,0.08961272984743118,-0.15286093950271606
1789729837225030000,7.91302978515625,0.09294158220291138,0.05073172226548195,0.012782796286046505
1789729837234966500,7.922966552734375,0.19413872063159943,-0.013714875094592571,0.1480673849582672
1789729837244903200,7.932903076171875,0.28947708010673523,-0.10159660130739212,0.20878566801548004
1789729837254839800,7.94283984375,0.34060826897621155,-0.2113156020641327,0.1821548491716385
1789729837264776400,7.9527763671875,0.3155752718448639,-0.36311131715774536,0.09107742458581924
1789729837274713000,7.962713134765625,0.2191716879606247,-0.5223636627197266,-0.0005326165119186044
1789729837284650200,7.972650146484375,0.10465914756059647,-0.6086475253105164,-0.02450035884976387
1789729837294587100,7.982587158203125,0.011983871459960938,-0.5985277891159058,0.02876129187643528
1789729837304522800,7.992522705078125,-0.04553871229290962,-0.4525908827781677,0.13581721484661102
1789729837314458600,8.002458740234376,-0.06364767253398895,-0.18361954391002655,0.2450035959482193
1789729837324394800,8.012394775390625,-0.04181039705872536,0.09014534205198288,0.30465665459632874
1789729837334331100,8.0223310546875,-0.006657706573605537,0.27230018377304077,0.3009283244609833
1789729837344268000,8.03226806640625,0.012516488321125507,0.3452686667442322,0.2663082480430603
1789729837354205000,8.042204833984375,0.014114337973296642,0.3117138147354126,0.23914481699466705
1789729837364142000,8.05214208984375,-0.00399462366476655,0.15512455999851227,0.23115555942058563
1789729837374079200,8.062079345703125,-0.06098458915948868,-0.10798799991607666,0.21517707407474518
1789729837384016600,8.0720166015625,-0.13714875280857086,-0.335415244102478,0.18694838881492615
1789729837393952500,8.081952392578126,-0.18987779319286346,-0.447264701128006,0.1805569976568222
1789729837403888400,8.091888427734375,-0.19094301760196686,-0.39453569054603577,0.2119813710451126
1789729837413824300,8.10182421875,-0.13981182873249054,-0.24540305137634277,0.24926452338695526
1789729837423761000,8.111760986328125,-0.07643046975135803,-0.11597724258899689,0.2236989289522171
1789729837433698000,8.121697998046875,-0.028494983911514282,-0.054193731397390366,0.13208889961242676
1789729837443635000,8.131635009765626,-0.0018641578499227762,-0.05472634732723236,0.04473978653550148
1789729837453572400,8.141572265625,0.00399462366476655,-0.06324820965528488,0.01438064593821764
1789729837463509000,8.151509033203125,0.009320789016783237,-0.03235645219683647,0.0633813664317131
1789729837473445600,8.161445556640626,0.024766668677330017,0.047003407031297684,0.17469821870326996
1789729837483382000,8.171382080078125,0.0476691760122776,0.15725502371788025,0.2764279842376709
1789729837493318700,8.181318603515624,0.07163692265748978,0.26537618041038513,0.3089175820350647
1789729837503255300,8.19125537109375,0.0902784988284111,0.3527252972126007,0.26950395107269287
1789729837513191400,8.20119140625,0.08814803510904312,0.39213889837265015,0.1693720519542694
1789729837523128300,8.21112841796875,0.05619104206562042,0.38042134046554565,0.02876129187643528
1789729837533065000,8.22106494140625,0.006657706573605537,0.33727940917015076,-0.09906667470932007
1789729837543001600,8.231001708984374,-0.03169068321585655,0.28455036878585815,-0.17736129462718964
1789729837552937700,8.240937744140625,-0.03488638252019882,0.2259625494480133,-0.19014409184455872
1789729837562873600,8.25087353515625,-0.002929390873759985,0.172700896859169,-0.15499140322208405
1789729837572809700,8.260809814453125,0.0476691760122776,0.13275466859340668,-0.10386022180318832
1789729837582746400,8.270746337890625,0.08175663650035858,0.06937330216169357,-0.06977276504039764
1789729837592682800,8.280682861328126,0.08335448056459427,-0.038215234875679016,-0.06817491352558136
1789729837602619600,8.29061962890625,0.06790860742330551,-0.13195574283599854,-0.0633813664317131
1789729837612557800,8.300557861328125,0.06790860742330551,-0.17403244972229004,-0.01491326279938221
1789729837622494500,8.310494384765626,0.11318100988864899,-0.18521739542484283,0.06924014538526535
1789729837632431000,8.32043115234375,0.1877473145723343,-0.15432563424110413,0.15658925473690033
1789729837642367200,8.3303671875,0.25645485520362854,-0.10585752874612808,0.2141118347644806
1789729837652303000,8.34030322265625,0.30865126848220825,-0.07443315535783768,0.23914481699466705
1789729837662239500,8.350239501953125,0.3432713449001312,-0.02703028731048107,0.2551233172416687
1789729837672175900,8.36017578125,0.3443365693092346,0.0033288532868027687,0.2545906901359558
1789729837682112500,8.370112548828125,0.32942330837249756,0.017176883295178413,0.2119813710451126
1789729837692049200,8.380049072265624,0.3150426745414734,0.03954677656292915,0.137947678565979
1789729837701986300,8.389986328125,0.27616167068481445,0.03848154470324516,0.042076703161001205
1789729837711923200,8.399923095703125,0.20425842702388763,0.012383334338665009,-0.055924732238054276
1789729837721860000,8.409860107421874,0.13022473454475403,-0.0025299284607172012,-0.1171756312251091
1789729837731797000,8.419796875,0.06471290439367294,0.014513799920678139,-0.13528458774089813
1789729837741733400,8.4297333984375,0.03169068321585655,0.08428656309843063,-0.10013190656900406
1789729837751670000,8.439669921875,0.04660394415259361,0.16843996942043304,-0.016511112451553345
1789729837761606400,8.4496064453125,0.111050546169281,0.23022349178791046,0.053794268518686295
1789729837771542800,8.459542724609374,0.19946488738059998,0.23927797377109528,0.09480573982000351
1789729837781479400,8.4694794921875,0.26763978600502014,0.19666863977909088,0.11131685227155685
1789729837791415800,8.479415771484375,0.2820204496383667,0.08428656309843063,0.08362079411745071
1789729837801352700,8.489352783203126,0.2276935577392578,-0.07762885838747025,0.04367455467581749
1789729837811289900,8.499289794921875,0.12596380710601807,-0.2113156020641327,0.015445878729224205
1789729837821226500,8.5092265625,0.0482017956674099,-0.24540305137634277,-0.004260932095348835
1789729837831163100,8.5191630859375,0.023701434955000877,-0.16231487691402435,0.013315413147211075
1789729837841099500,8.529099609375,0.04021254554390907,0.02836182899773121,0.05006595328450203
1789729837851036000,8.539035888671876,0.08122401684522629,0.2483324557542801,0.0644465982913971
1789729837860972300,8.54897216796875,0.11371362209320068,0.4256937503814697,0.042076703161001205
1789729837870908700,8.55890869140625,0.11318100988864899,0.5018579363822937,-0.01384802907705307
1789729837880845000,8.568844970703125,0.06418029218912125,0.4624442756175995,-0.11291470378637314
1789729837890781400,8.578781494140625,-0.029027599841356277,0.33887726068496704,-0.2125139832496643
1789729837900719000,8.588718994140624,-0.15206201374530792,0.16045072674751282,-0.2909417748451233
1789729837910656000,8.598656005859375,-0.2729659676551819,-0.012649642303586006,-0.34100770950317383
1789729837920592400,8.60859228515625,-0.37256523966789246,-0.10852061212062836,-0.3633776009082794
1789729837930528500,8.618528564453126,-0.4311530590057373,-0.09627043455839157,-0.3442034125328064
1789729837940465400,8.62846533203125,-0.43541398644447327,0.009187635034322739,-0.265908807516098
1789729837950402300,8.63840234375,-0.37309786677360535,0.17483137547969818,-0.14540430903434753
1789729837960339000,8.6483388671875,-0.24793298542499542,0.3404751121997833,-0.022902509197592735
1789729837970275300,8.658275390625,-0.10892007499933243,0.450726717710495,0.0532616525888443
1789729837980212000,8.6682119140625,0.00133154122158885,0.4949339032173157,0.048468101769685745
1789729837990148600,8.678148681640625,0.05938674136996269,0.4693683087825775,-0.027163442224264145
1789729838000086300,8.688086181640625,0.04926702752709389,0.33727940917015076,-0.15552401542663574
1789729838010020900,8.698020751953125,-0.025299284607172012,0.09973244369029999,-0.2930722236633301
1789729838019956000,8.7079560546875,-0.13448566198349,-0.16497796773910522,-0.38255181908607483
1789729838029891300,8.717891357421875,-0.24473728239536285,-0.3780245780944824,-0.40172600746154785
1789729838039827200,8.7278271484375,-0.3256950080394745,-0.5069177746772766,-0.35964930057525635
1789729838049763800,8.737763916015625,-0.35978245735168457,-0.5383421182632446,-0.2770937383174896
1789729838059701000,8.747700927734375,-0.3224993050098419,-0.4573844373226166,-0.1805569976568222
1789729838069639000,8.757638916015624,-0.20319320261478424,-0.2848166823387146,-0.08042509108781815
1789729838079576800,8.767576904296876,-0.03808208182454109,-0.07869409024715424,0.0037283156998455524
1789729838089514800,8.7775146484375,0.09933298081159592,0.07469946891069412,0.04047885537147522
1789729838099451400,8.787451416015625,0.14939893782138824,0.13222205638885498,0.037815771996974945
1789729838109388000,8.797387939453126,0.13448566198349,0.11358047276735306,0.031424373388290405
1789729838119324400,8.807324462890625,0.11584409326314926,0.1093195378780365,0.05965305119752884
1789729838129261000,8.817260986328124,0.11797455698251724,0.11464570462703705,0.12196917831897736
1789729838139198000,8.827197998046875,0.1227681040763855,0.11411308497190475,0.17523083090782166
1789729838149134600,8.837134521484375,0.1014634445309639,0.08641702681779861,0.18854624032974243
1789729838159071000,8.847071044921876,0.06524552404880524,0.024633513763546944,0.1587197184562683
1789729838169007600,8.857007568359375,0.04340824484825134,-0.03661738336086273,0.11291470378637314
1789729838178944500,8.866944580078124,0.023168819025158882,-0.08987903594970703,0.08095771074295044
1789729838188880600,8.876880615234375,0.0007989247678779066,-0.13408620655536652,0.06657706201076508
1789729838198817000,8.886817138671875,-0.026364516466856003,-0.18361954391002655,0.047402869910001755
1789729838208753200,8.896753173828126,-0.05406057462096214,-0.23634858429431915,0.021837277337908745
1789729838218689500,8.906689453125,-0.06471290439367294,-0.24859875440597534,0.01491326279938221
1789729838228626000,8.9166259765625,-0.05406057462096214,-0.178293377161026,0.050598569214344025
1789729838238562800,8.926562744140625,-0.015712186694145203,-0.04194355010986328,0.11504516750574112
1789729838248499500,8.93649951171875,0.04340824484825134,0.11411308497190475,0.16244803369045258
1789729838258436400,8.946436279296876,0.10678961127996445,0.22329947352409363,0.15925233066082
1789729838268373000,8.956373046875,0.1435401439666748,0.22223423421382904,0.10386022180318832
1789729838278310000,8.966309814453124,0.13661614060401917,0.12796111404895782,0.0159784946590662
1789729838288246500,8.97624658203125,0.07802832126617432,-0.01957365684211254,-0.07935985922813416
1789729838298183700,8.98618359375,-0.021038351580500603,-0.145803764462471,-0.1486000120639801
1789729838308120300,8.996120361328124,-0.1009308323264122,-0.18095645308494568,-0.15712186694145203
1789729838318057000,9.006056884765625,-0.11744193732738495,-0.12769481539726257,-0.11397993564605713
1789729838327993300,9.015993408203125,-0.09720251709222794,-0.04673709720373154,-0.08788172155618668
1789729838337930200,9.02593017578125,-0.07589785009622574,0.015579032711684704,-0.12090394645929337
1789729838347866600,9.03586669921875,-0.0583215095102787,0.040612008422613144,-0.18801362812519073
1789729838357802800,9.045802734375,-0.0482017956674099,0.03688369318842888,-0.2252967804670334
1789729838367739100,9.0557392578125,-0.03382114693522453,0.022503048181533813,-0.1922745555639267
1789729838377675500,9.065675537109374,-0.0018641578499227762,0.015579032711684704,-0.10332760214805603
1789729838387612000,9.07561181640625,0.03808208182454109,0.0033288532868027687,-0.0106523297727108
1789729838397548500,9.085548583984375,0.05672365799546242,-0.05792204663157463,0.03089175745844841
1789729838407485400,9.0954853515625,0.024766668677330017,-0.17030413448810577,0.00905448105186224
1789729838417422000,9.105422119140625,-0.028494983911514282,-0.2746969759464264,-0.018641578033566475
1789729838427359000,9.11535888671875,-0.0689738392829895,-0.3284912407398224,-0.01118494663387537
1789729838437295600,9.125295654296876,-0.08814803510904312,-0.3173062801361084,0.039946239441633224
1789729838447232500,9.135232421875,-0.07323476672172546,-0.22622886300086975,0.13102366030216217
1789729838457169200,9.145169189453124,-0.014646953903138638,-0.07496577501296997,0.23168818652629852
1789729838467106000,9.15510595703125,0.04021254554390907,0.05232957378029823,0.2902759909629822
1789729838477042700,9.165042724609375,0.05619104206562042,0.08375394344329834,0.264710396528244
1789729838486979600,9.1749794921875,0.008255556225776672,0.031024912372231483,0.16191542148590088
1789729838496916000,9.184916015625,-0.09720251709222794,-0.05685681104660034,0.030359141528606415
1789729838506852600,9.1948525390625,-0.19520394504070282,-0.11544463038444519,-0.06657706201076508
1789729838516789200,9.204789306640626,-0.23621542751789093,-0.11331415921449661,-0.10918638855218887
1789729838526726000,9.214725830078125,-0.22662831842899323,-0.06591129302978516,-0.14753477275371552
1789729838536662300,9.224662353515624,-0.20425842702388763,-0.035019535571336746,-0.21784014999866486
1789729838546599000,9.234598876953125,-0.2069215178489685,-0.04833494871854782,-0.3138442933559418
1789729838556535600,9.24453564453125,-0.24154159426689148,-0.09840089827775955,-0.4070521593093872
1789729838566472000,9.254471923828126,-0.27829211950302124,-0.14367330074310303,-0.4592485725879669
1789729838576408600,9.26440869140625,-0.28681400418281555,-0.14899946749210358,-0.4395417869091034
1789729838586345200,9.27434521484375,-0.2596505582332611,-0.12343387305736542,-0.3628450036048889
1789729838596281600,9.284281494140625,-0.21650861203670502,-0.0829550251364708,-0.26324570178985596
1789729838606218200,9.29421826171875,-0.17176882922649384,-0.048867564648389816,-0.17629607021808624
1789729838616155000,9.30415478515625,-0.12809427082538605,-0.055258963257074356,-0.11504516750574112
1789729838626091500,9.314091552734375,-0.08921326696872711,-0.07869409024715424,-0.07083799690008163
1789729838636028000,9.32402783203125,-0.04660394415259361,-0.09733566641807556,-0.032489608973264694
1789729838645964500,9.333964599609375,0.0061250897124409676,-0.09999874979257584,0.00905448105186224
1789729838655901200,9.343901123046875,0.04979964345693588,-0.12183602899312973,0.032489608973264694
1789729838665837600,9.353837646484376,0.06364767253398895,-0.17136935889720917,0.02450035884976387
1789729838675774200,9.363774169921875,0.04287562891840935,-0.2427399754524231,0.01118494663387537
1789729838685710800,9.3737109375,0.002929390873759985,-0.32156720757484436,0.01917419396340847
1789729838695647500,9.3836474609375,-0.04127778112888336,-0.38548120856285095,0.051663801074028015
1789729838705584000,9.393584228515625,-0.07163692265748978,-0.3998618423938751,0.09746882319450378
1789729838715520800,9.403520751953126,-0.07110430300235748,-0.34446972608566284,0.15232832729816437
1789729838725457400,9.41345751953125,-0.05459319427609444,-0.2533923089504242,0.20399212837219238
1789729838735394000,9.42339404296875,-0.03275591507554054,-0.1676410436630249,0.22902509570121765
1789729838745331000,9.4333310546875,-0.021038351580500603,-0.11917294561862946,0.2018616646528244
1789729838755267600,9.443267578125,-0.013581721112132072,-0.11544463038444519,0.12516488134860992
1789729838765204200,9.453204345703124,0.011451254598796368,-0.08508548885583878,0.05006595328450203
1789729838775140900,9.463140869140625,0.06098458915948868,-0.007856093347072601,-0.01171756349503994
1789729838785077500,9.473077392578125,0.10625699162483215,0.057655736804008484,-0.08894696086645126
1789729838795014100,9.48301416015625,0.12489857524633408,0.06564498692750931,-0.191741943359375
1789729838804950800,9.49295068359375,0.12436595559120178,0.02303566411137581,-0.25312599539756775
1789729838814887400,9.502887451171874,0.12596380710601807,-0.07070484012365341,-0.2595174014568329
1789729838824824000,9.512823974609375,0.11690932512283325,-0.20598943531513214,-0.22849248349666595
1789729838834760700,9.5227607421875,0.08228924870491028,-0.3476654291152954,-0.1597849577665329
1789729838844697600,9.532697509765624,0.04127778112888336,-0.454188734292984,-0.07563154399394989
1789729838854634200,9.54263427734375,0.012516488321125507,-0.48028692603111267,0.03621792420744896
1789729838864571000,9.55257080078125,0.022636201232671738,-0.3705679476261139,0.18428531289100647
1789729838874507500,9.562507568359376,0.06418029218912125,-0.16604319214820862,0.3201025128364563
1789729838884444200,9.572444091796875,0.09613727778196335,0.03848154470324516,0.37975558638572693
1789729838894380800,9.582380859375,0.09560466557741165,0.1625811904668808,0.34460288286209106
1789729838904317400,9.5923173828125,0.07856093347072601,0.20891882479190826,0.24819929897785187
1789729838914254000,9.602254150390625,0.07323476672172546,0.23128871619701385,0.14167599380016327
1789729838924190700,9.612190673828126,0.0902784988284111,0.265908807516098,0.06551183015108109
1789729838934127600,9.622127685546875,0.10572437942028046,0.28614822030067444,0.010119713842868805
1789729838944064500,9.632064453125,0.07696308940649033,0.41131308674812317,-0.08947957307100296
1789729838954001200,9.642001220703126,0.015712186694145203,0.4944012761116028,-0.3575188219547272
1789729838963937500,9.6519375,-0.012516488321125507,0.20945143699645996,-0.6206313967704773
1789729838973874000,9.6618740234375,0.0007989247678779066,-0.15911918878555298,-0.7468615174293518
1789729838983810300,9.671810302734375,0.04873441159725189,-0.33115431666374207,-0.7511224150657654
1789729838993747000,9.681746826171874,0.07110430300235748,-0.3135779798030853,-0.6520557403564453
1789729839003684400,9.691684326171876,0.06524552404880524,-0.2528596818447113,-0.4922707974910736
1789729839013621000,9.70162109375,0.07749570161104202,-0.21344606578350067,-0.2925396263599396
1789729839023557600,9.7115576171875,0.12702903151512146,-0.18361954391002655,-0.05113118514418602
1789729839033494300,9.721494384765625,0.19094301760196686,-0.12449911236763,0.19493764638900757
1789729839043431000,9.731430908203125,0.22130216658115387,-0.10212921351194382,0.3595161437988281
1789729839053367600,9.741367431640626,0.19999749958515167,-0.16018441319465637,0.3829512596130371
1789729839063304200,9.75130419921875,0.12969212234020233,-0.27895790338516235,0.27216702699661255
1789729839073240600,9.761240478515624,0.04021254554390907,-0.36257869005203247,0.0953383520245552
1789729839083177000,9.771177001953125,-0.030092833563685417,-0.3386109471321106,-0.0644465982913971
1789729839093113300,9.78111328125,-0.06045197322964668,-0.19586972892284393,-0.13581721484661102
1789729839103049700,9.7910498046875,-0.04394086077809334,0.015046416781842709,-0.08788172155618668
1789729839112986400,9.800986328125,-0.00452724052593112,0.23235395550727844,0.060185667127370834
1789729839122923000,9.810923095703124,0.014114337973296642,0.40385645627975464,0.2439383566379547
1789729839132859600,9.820859619140625,-0.0050598569214344025,0.4629769027233124,0.39040789008140564
1789729839142796300,9.83079638671875,-0.04607132822275162,0.40279123187065125,0.4782896339893341
1789729839152733000,9.84073291015625,-0.08335448056459427,0.29520270228385925,0.5166380405426025
1789729839162669600,9.850669677734375,-0.1115831583738327,0.15991811454296112,0.5006595253944397
1789729839172606200,9.860606201171874,-0.13448566198349,0.050199106335639954,0.44153907895088196
1789729839182542800,9.87054296875,-0.1451379954814911,-0.014780107885599136,0.3483312129974365
1789729839192479500,9.8804794921875,-0.14034445583820343,-0.03928046673536301,0.2338186502456665
1789729839202416000,9.890416015625,-0.13075734674930573,-0.03928046673536301,0.11078423261642456
1789729839212353000,9.90035302734375,-0.132355198264122,-0.017975807189941406,-0.02023942768573761
1789729839222289700,9.91028955078125,-0.15951864421367645,0.02729659713804722,-0.1272953450679779
1789729839232226300,9.920226318359376,-0.1877473145723343,0.08162347972393036,-0.19600287079811096
1789729839242163000,9.930162841796875,-0.1744319051504135,0.07097115367650986,-0.24939768016338348
1789729839252099600,9.940099609375,-0.12702903151512146,0.12529803812503815,-0.2568543255329132
1789729839262036200,9.9500361328125,-0.05512581020593643,0.20785360038280487,-0.22582940757274628
1789729839271972900,9.959972900390625,0.031158065423369408,0.27336543798446655,-0.15232832729816437
1789729839281909500,9.969909423828126,0.11690932512283325,0.2802894413471222,-0.07669677585363388
1789729839291847200,9.97984716796875,0.17230144143104553,0.2371474951505661,-0.033554840832948685
1789729839301783800,9.98978369140625,0.19307348132133484,0.16364642977714539,-0.03728315606713295
1789729839311720400,9.999720458984376,0.2063889056444168,0.07256899774074554,-0.07776200771331787
1789729839321657000,10.009656982421875,0.21118244528770447,-0.023301972076296806,-0.14646953344345093
1789729839331593700,10.01959375,0.1978670358657837,-0.11864032596349716,-0.2348838746547699
1789729839341530400,10.0295302734375,0.1744319051504135,-0.19693495333194733,-0.29680055379867554
1789729839351467000,10.039467041015625,0.1547250896692276,-0.1990654170513153,-0.2898765504360199
1789729839361403600,10.049403564453126,0.14886631071567535,-0.1042596846818924,-0.20558997988700867
1789729839371340000,10.059340087890625,0.14726845920085907,0.054460037499666214,-0.06870753318071365
1789729839381276700,10.069276611328124,0.13555090129375458,0.1945381760597229,0.061250898987054825
1789729839391213300,10.07921337890625,0.1126483902335167,0.26324570178985596,0.10865376889705658
1789729839401150500,10.089150390625,0.07589785009622574,0.2264951765537262,0.07083799690008163
1789729839411087000,10.099087158203124,0.0370168462395668,0.12370018661022186,-0.00905448105186224
1789729839421023700,10.109023681640625,0.0018641578499227762,0.021437814459204674,-0.08095771074295044
1789729839430960400,10.11896044921875,-0.028494983911514282,-0.03928046673536301,-0.09746882319450378
1789729839440896800,10.128896728515626,-0.030092833563685417,-0.0009320789249613881,-0.044207170605659485
1789729839450833400,10.13883349609375,0.0077229393646121025,0.1295589655637741,0.06604444980621338
1789729839460770300,10.148770263671874,0.07483261823654175,0.2914743721485138,0.18801362812519073
1789729839470707500,10.15870751953125,0.13714875280857086,0.3974650800228119,0.2742975056171417
1789729839480643300,10.168643310546875,0.16750788688659668,0.4209001958370209,0.31371113657951355
1789729839490579200,10.1785791015625,0.16058388352394104,0.3564535975456238,0.3115806579589844
1789729839500515600,10.188515625,0.12756165862083435,0.2254299372434616,0.28228676319122314
1789729839510452000,10.198451904296874,0.07536523789167404,0.06351451575756073,0.22795987129211426
1789729839520388900,10.208388916015625,0.008255556225776672,-0.07656362652778625,0.1597849577665329
1789729839530326500,10.218326416015625,-0.04021254554390907,-0.1559234857559204,0.08681648969650269
1789729839540263700,10.228263671875,-0.0583215095102787,-0.1569887101650238,0.02663082629442215
1789729839550200300,10.238200439453125,-0.05246272683143616,-0.12023817747831345,-0.0031956990715116262
1789729839560137000,10.248136962890625,-0.03914731368422508,-0.07816147059202194,-0.0010652330238372087
1789729839570073600,10.258073486328126,-0.03382114693522453,-0.04673709720373154,0.015445878729224205
1789729839580010000,10.268010009765625,-0.04287562891840935,-0.028628136962652206,0.026098208501935005
1789729839589947100,10.277947021484374,-0.06045197322964668,-0.03608476743102074,0.016511112451553345
1789729839599883500,10.287883544921876,-0.07270215451717377,-0.05472634732723236,-0.007456631399691105
1789729839609820000,10.29781982421875,-0.07856093347072601,-0.07656362652778625,-0.029293907806277275
1789729839619756300,10.30775634765625,-0.07643046975135803,-0.08721595257520676,-0.049533337354660034
1789729839629693000,10.31769287109375,-0.05406057462096214,-0.07762885838747025,-0.06284874677658081
1789729839639629300,10.32762939453125,-0.017310036346316338,-0.03768261894583702,-0.05645735189318657
1789729839649565700,10.337565673828125,-0.0007989247678779066,-0.009453942999243736,-0.04687025398015976
1789729839659502300,10.34750244140625,-0.009853405877947807,-0.009986559860408306,-0.03515268862247467
1789729839669439500,10.357439453125,-0.031158065423369408,-0.026497671380639076,-0.03834838792681694
1789729839679377000,10.367376953125,-0.06364767253398895,-0.05312849581241608,-0.06764229387044907
1789729839689313500,10.3773134765625,-0.10945269465446472,-0.07656362652778625,-0.11078423261642456
1789729839699250200,10.387250244140626,-0.1552577167749405,-0.08188978582620621,-0.13528458774089813
1789729839709186800,10.397186767578125,-0.19307348132133484,-0.07975932210683823,-0.13315412402153015
1789729839719123500,10.40712353515625,-0.18934516608715057,-0.0723026916384697,-0.11930610239505768
1789729839729060400,10.417060302734376,-0.13874660432338715,-0.05366111174225807,-0.09800143539905548
1789729839738997000,10.4269970703125,-0.06364767253398895,0.02942706272006035,-0.046337638050317764
1789729839748933600,10.43693359375,0.04447348043322563,0.14607007801532745,0.00852186419069767
1789729839758870500,10.44687060546875,0.14726845920085907,0.235549658536911,0.04687025398015976
1789729839768806700,10.456806640625,0.1877473145723343,0.21797330677509308,0.04473978653550148
1789729839778743000,10.466742919921876,0.1430075317621231,0.08641702681779861,-0.01384802907705307
1789729839788679200,10.47667919921875,0.05512581020593643,-0.055258963257074356,-0.09001219272613525
1789729839798615600,10.486615478515626,-0.00719032296910882,-0.10585752874612808,-0.14380645751953125
1789729839808552000,10.496552001953125,-0.008255556225776672,-0.0712374597787857,-0.16777420043945312
1789729839818489900,10.50648974609375,0.008255556225776672,-0.048867564648389816,-0.16511112451553345
1789729839828427000,10.516427001953126,0.002929390873759985,-0.06271559745073318,-0.16457849740982056
1789729839838363600,10.52636376953125,-0.009853405877947807,-0.058454662561416626,-0.15712186694145203
1789729839848300300,10.53630029296875,0.0007989247678779066,-0.009986559860408306,-0.11451254785060883
1789729839858237000,10.54623681640625,0.03808208182454109,0.033155377954244614,-0.04687025398015976
1789729839868173600,10.556173583984375,0.0588541254401207,0.03155753016471863,0.013315413147211075
1789729839878108400,10.5661083984375,0.03648423030972481,0.0027962366584688425,0.05113118514418602
1789729839888043800,10.576043701171875,-0.0050598569214344025,-0.021171506494283676,0.06817491352558136
1789729839897979600,10.585979736328126,-0.03275591507554054,-0.011051792651414871,0.0745663121342659
1789729839907916000,10.595916015625,-0.0370168462395668,0.037416309118270874,0.0953383520245552
1789729839917853200,10.605853271484374,-0.029027599841356277,0.10452599078416824,0.137947678565979
1789729839927790600,10.61579052734375,-0.025299284607172012,0.183885857462883,0.18322007358074188
1789729839937728500,10.625728515625,-0.03861469775438309,0.237680122256279,0.20399212837219238
1789729839947666400,10.63566650390625,-0.06204982474446297,0.2552564740180969,0.1912093311548233
1789729839957604600,10.6456044921875,-0.06418029218912125,0.2579195499420166,0.15712186694145203
1789729839967539500,10.65553955078125,-0.0370168462395668,0.2467346042394638,0.11238208413124084
1789729839977474600,10.665474609375,-0.0007989247678779066,0.23981058597564697,0.07669677585363388
1789729839987410000,10.675409912109375,0.025299284607172012,0.2366148829460144,0.045272402465343475
1789729839997346000,10.685345947265626,0.0375494658946991,0.24513675272464752,0.0053261648863554
1789729840007282700,10.69528271484375,0.04447348043322563,0.25472384691238403,-0.02982652559876442
1789729840017220000,10.70522021484375,0.05246272683143616,0.26271310448646545,-0.03408745676279068
1789729840027158000,10.715157958984374,0.05033225938677788,0.2696371078491211,-0.0026630824431777
1789729840037096200,10.72509619140625,0.05246272683143616,0.2483324557542801,0.043141938745975494
1789729840047033900,10.735033935546875,0.04979964345693588,0.13914605975151062,0.05539211630821228
1789729840056970500,10.744970458984374,0.030625449493527412,-0.01744319126009941,0.0047935484908521175
1789729840066907100,10.7549072265625,0.008255556225776672,-0.14207544922828674,-0.056989967823028564
1789729840076843800,10.76484375,0.002929390873759985,-0.19373925030231476,-0.058055199682712555
1789729840086780400,10.774780517578124,0.04074516147375107,-0.16018441319465637,0.0053261648863554
1789729840096717000,10.784717041015625,0.11477886140346527,-0.08721595257520676,0.0964035913348198
1789729840106653700,10.79465380859375,0.16910573840141296,-0.02170412242412567,0.1597849577665329
1789729840116590300,10.80459033203125,0.17922545969486237,0.005991935729980469,0.15765449404716492
1789729840126527200,10.81452734375,0.14833369851112366,-0.0238345880061388,0.09054480493068695
1789729840136463600,10.824463623046874,0.1009308323264122,-0.04833494871854782,-0.01118494663387537
1789729840146400000,10.83439990234375,0.06790860742330551,-0.02809552103281021,-0.1070559173822403
1789729840156336600,10.844336669921875,0.05033225938677788,0.02090519852936268,-0.17629607021808624
1789729840166273000,10.85427294921875,0.030092833563685417,0.066177599132061,-0.2338186502456665
1789729840176209400,10.86420947265625,0.002929390873759985,0.07097115367650986,-0.2983984053134918
1789729840186146000,10.87414599609375,-0.022636201232671738,0.06298190355300903,-0.37829089164733887
1789729840196082700,10.884082763671875,-0.03648423030972481,0.03954677656292915,-0.44273748993873596
1789729840206019600,10.89401953125,-0.04447348043322563,-0.016910573467612267,-0.4517919421195984
1789729840215956200,10.903956298828126,-0.05352795869112015,-0.04726971685886383,-0.3953346014022827
1789729840225893400,10.913893310546875,-0.05991935729980469,-0.04940018057823181,-0.2818872928619385
1789729840235830800,10.923830810546875,-0.06418029218912125,-0.06804175674915314,-0.1390129029750824
1789729840245767400,10.933767333984376,-0.05991935729980469,-0.10692276805639267,-0.01118494663387537
1789729840255704000,10.9437041015625,-0.04607132822275162,-0.16124965250492096,0.08362079411745071
1789729840265640700,10.953640625,-0.030092833563685417,-0.22303315997123718,0.13581721484661102
1789729840275577300,10.963577392578125,-0.011983871459960938,-0.24806614220142365,0.15499140322208405
1789729840285513500,10.973513427734375,0.009320789016783237,-0.24540305137634277,0.16777420043945312
1789729840295449600,10.98344970703125,0.031158065423369408,-0.20226112008094788,0.18481792509555817
1789729840305386000,10.993385986328125,0.04660394415259361,-0.1468690037727356,0.19547025859355927
1789729840315322400,11.003322265625,0.05352795869112015,-0.09467258304357529,0.2018616646528244
1789729840325259000,11.013259033203125,0.03967992961406708,-0.047802332788705826,0.17682868242263794
1789729840335196200,11.023196044921875,0.019973119720816612,0.000665770610794425,0.12037133425474167
1789729840345133000,11.033133056640626,0.012516488321125507,0.019307348877191544,0.05006595328450203
1789729840355070200,11.0430703125,0.013049104250967503,0.02623136341571808,-0.0053261648863554
1789729840365007400,11.05300732421875,0.019973119720816612,0.02090519852936268,-0.023967742919921875
1789729840374944300,11.0629443359375,0.03222329914569855,0.0011983871227130294,0.0005326165119186044
1789729840384881400,11.07288134765625,0.04607132822275162,-0.03768261894583702,0.06071828305721283
1789729840394817300,11.0828173828125,0.05352795869112015,-0.09041165560483932,0.1384802907705307
1789729840404754200,11.092754150390626,0.04607132822275162,-0.13408620655536652,0.22156846523284912
1789729840414690800,11.10269091796875,0.03222329914569855,-0.1463363915681839,0.3201025128364563
1789729840424627700,11.112627685546874,0.030092833563685417,-0.1042596846818924,0.418103963136673
1789729840434564400,11.122564453125,0.0689738392829895,-0.03608476743102074,0.4900071918964386
1789729840444501200,11.132501220703125,0.11744193732738495,0.0033288532868027687,0.5017247796058655
1789729840454438000,11.14243798828125,0.12063764035701752,0.0001331541279796511,0.43248459696769714
1789729840464374500,11.15237451171875,0.07110430300235748,-0.06591129302978516,0.2897433936595917
1789729840474311200,11.162311279296874,-0.00399462366476655,-0.1351514458656311,0.10918638855218887
1789729840484247800,11.172247802734375,-0.05619104206562042,-0.17616291344165802,-0.060185667127370834
1789729840494184400,11.182184326171875,-0.07270215451717377,-0.19693495333194733,-0.1821548491716385
1789729840504121000,11.19212109375,-0.08441971987485886,-0.18734785914421082,-0.24993029236793518
1789729840514057700,11.2020576171875,-0.10359390825033188,-0.13781452178955078,-0.2605826258659363
1789729840523994400,11.211994384765624,-0.1115831583738327,-0.04407401755452156,-0.21624229848384857
1789729840533931300,11.22193115234375,-0.10199606418609619,0.010785484686493874,-0.1491326242685318
1789729840543868000,11.231867919921875,-0.06790860742330551,-0.0025299284607172012,-0.09959928691387177
1789729840553804500,11.241804443359374,-0.00399462366476655,-0.05632419511675835,-0.12090394645929337
1789729840563741200,11.2517412109375,0.07110430300235748,-0.13887976109981537,-0.22636201977729797
1789729840573677800,11.261677734375,0.11797455698251724,-0.19427187740802765,-0.3745625615119934
1789729840583614500,11.271614501953126,0.12702903151512146,-0.1042596846818924,-0.4608464241027832
1789729840593551000,11.281551025390625,0.10572437942028046,0.08109086751937866,-0.4379439353942871
1789729840603487700,11.29148779296875,0.04340824484825134,0.2557890713214874,-0.31490951776504517
1789729840613424400,11.30142431640625,-0.026364516466856003,0.38947582244873047,-0.12250179797410965
1789729840623361800,11.31136181640625,-0.07003907114267349,0.4613790512084961,0.07030537724494934
1789729840633298700,11.321298583984374,-0.07749570161104202,0.408117413520813,0.20399212837219238
1789729840643234600,11.331234619140625,0.03222329914569855,0.2904091477394104,0.28175413608551025
1789729840653170700,11.341170654296874,0.1760297566652298,-0.02809552103281021,0.23648172616958618
1789729840663106600,11.3511064453125,0.12756165862083435,-0.39613354206085205,0.15073047578334808
1789729840673043200,11.361043212890625,0.008255556225776672,-0.5532553791999817,0.14593692123889923
1789729840682980600,11.370980712890624,-0.015179570764303207,-0.5580489635467529,0.21038351953029633
1789729840692918500,11.38091845703125,-0.06631075590848923,-0.566038191318512,0.28228676319122314
1789729840702855200,11.390855224609375,-0.1552577167749405,-0.4669715166091919,0.33554840087890625
1789729840712791800,11.400791748046874,-0.19254086911678314,-0.22835932672023773,0.348863810300827
1789729840722728400,11.410728515625,-0.1760297566652298,0.05925358831882477,0.34673336148262024
1789729840732665000,11.4206650390625,-0.1115831583738327,0.3207682967185974,0.3206351399421692
1789729840742602000,11.43060205078125,-0.018907885998487473,0.5300865769386292,0.2753627300262451
1789729840752538600,11.44053857421875,0.04287562891840935,0.6234276294708252,0.21784014999866486
1789729840762475300,11.450475341796874,0.05299534276127815,0.5962641835212708,0.14327384531497955
1789729840772412000,11.460411865234375,0.04340824484825134,0.4954665005207062,0.08681648969650269
1789729840782348500,11.4703486328125,0.03382114693522453,0.33994248509407043,0.09906667470932007
1789729840792285200,11.48028515625,0.0061250897124409676,0.14766792953014374,0.15339355170726776
1789729840802221800,11.490221923828125,-0.04553871229290962,-0.07336792349815369,0.19866596162319183
1789729840812158500,11.500158447265624,-0.07643046975135803,-0.2416747361421585,0.24819929897785187
1789729840822095000,11.51009521484375,-0.0583215095102787,-0.3071865737438202,0.3115806579589844
1789729840832031700,11.52003173828125,-0.014114337973296642,-0.26724034547805786,0.3611139953136444
1789729840841968600,11.52996875,0.019973119720816612,-0.17190198600292206,0.3717663288116455
1789729840851905300,11.5399052734375,0.04021254554390907,-0.03555215150117874,0.33661362528800964
1789729840861842000,11.549842041015625,0.05672365799546242,0.09387365728616714,0.2545906901359558
1789729840871778600,11.559778564453126,0.05619104206562042,0.13488513231277466,0.16138280928134918
1789729840881715200,11.569715087890625,0.03967992961406708,0.0880148783326149,0.08255556225776672
1789729840891651800,11.57965185546875,0.0023967742454260588,-0.027562905102968216,0.019706811755895615
1789729840901588500,11.58958837890625,-0.05778888985514641,-0.15432563424110413,-0.017576344311237335
1789729840911525000,11.599525146484375,-0.11531147360801697,-0.22409839928150177,0.0010652330238372087
1789729840921461800,11.609461669921876,-0.13555090129375458,-0.2011958807706833,0.07882724702358246
1789729840931398700,11.619398681640625,-0.11637670546770096,-0.1260969638824463,0.17363297939300537
1789729840941335300,11.629335205078124,-0.08814803510904312,-0.04833494871854782,0.23115555942058563
1789729840951272000,11.63927197265625,-0.06151720881462097,0.016111649572849274,0.2247641682624817
1789729840961208600,11.64920849609375,-0.03275591507554054,0.050199106335639954,0.16670896112918854
1789729840971145500,11.6591455078125,-0.023168819025158882,0.05286218971014023,0.07616416364908218
1789729840981082400,11.669082275390625,-0.04873441159725189,-0.001997311832383275,-0.010119713842868805
1789729840991019500,11.67901953125,-0.09666989743709564,-0.09200949966907501,-0.07882724702358246
1789729841000956400,11.688956298828124,-0.1430075317621231,-0.1793586164712906,-0.14061075448989868
1789729841010893300,11.698893310546875,-0.16857312619686127,-0.22942456603050232,-0.2013290375471115
1789729841020829400,11.708829345703125,-0.16111649572849274,-0.22250054776668549,-0.25472384691238403
1789729841030765800,11.718765869140626,-0.13501828908920288,-0.16391272842884064,-0.2808220684528351
1789729841040702000,11.728701904296875,-0.09453943371772766,-0.08668334037065506,-0.27336543798446655
1789729841050638300,11.738638427734376,-0.04021254554390907,-0.021171506494283676,-0.25472384691238403
1789729841060575000,11.748574951171875,0.011983871459960938,0.011318100616335869,-0.23168818652629852
1789729841070512000,11.75851220703125,0.05193011090159416,0.012915950268507004,-0.19973118603229523
1789729841080449800,11.76844970703125,0.08601756393909454,-0.013714875094592571,-0.16830681264400482
1789729841090386700,11.77838671875,0.0908111184835434,-0.10159660130739212,-0.16777420043945312
1789729841100323300,11.7883232421875,0.04021254554390907,-0.23954427242279053,-0.19813334941864014
1789729841110260000,11.798260009765626,-0.04074516147375107,-0.3572525382041931,-0.19919857382774353
1789729841120196600,11.808196533203125,-0.09826774895191193,-0.3828181326389313,-0.11078423261642456
1789729841130134000,11.818134033203124,-0.09134373068809509,-0.2523270845413208,0.10226237028837204
1789729841140070000,11.82806982421875,0.0002663082559593022,-0.006258244160562754,0.3728315532207489
1789729841150006000,11.838006103515625,0.12969212234020233,0.23448441922664642,0.5432688593864441
1789729841159942100,11.847942138671876,0.1968017965555191,0.33727940917015076,0.5395405292510986
1789729841169878800,11.857878662109375,0.16377957165241241,0.2888112962245941,0.3621792197227478
1789729841179816000,11.86781591796875,0.07216953486204147,0.1508636325597763,0.08681648969650269
1789729841189753000,11.877753173828125,-0.017842652276158333,0.03049229457974434,-0.1501978635787964
1789729841199690000,11.88768994140625,-0.0588541254401207,-0.006790860556066036,-0.25259336829185486
1789729841209627100,11.897627197265624,-0.06631075590848923,0.02729659713804722,-0.2354165017604828
1789729841219564000,11.90756396484375,-0.08175663650035858,0.05659050494432449,-0.2034595012664795
1789729841229500700,11.917500732421875,-0.10412652790546417,0.03209014609456062,-0.2332860380411148
1789729841239437300,11.927437255859376,-0.09134373068809509,0.007057168986648321,-0.29626792669296265
1789729841249374000,11.9373740234375,-0.03914731368422508,0.0038614696823060513,-0.3521926701068878
1789729841259310600,11.947310546875,0.012516488321125507,0.005459319334477186,-0.3862801194190979
1789729841269247200,11.957247314453125,0.04553871229290962,-0.02063889056444168,-0.42409589886665344
1789729841279184100,11.96718408203125,0.06737598776817322,-0.07762885838747025,-0.47735753655433655
1789729841289120800,11.977120849609374,0.08761541545391083,-0.16444534063339233,-0.5412715077400208
1789729841299057400,11.987057373046875,0.11477886140346527,-0.24913136661052704,-0.5726959109306335
1789729841308994000,11.996994140625,0.16377957165241241,-0.26937079429626465,-0.539141058921814
1789729841318930700,12.0069306640625,0.22449785470962524,-0.21823962032794952,-0.4283568263053894
1789729841328867300,12.016867431640625,0.2708354890346527,-0.11704248189926147,-0.25259336829185486
1789729841338804000,12.026803955078124,0.27775952219963074,-0.0014646954368799925,-0.09480573982000351
1789729841348740600,12.03674072265625,0.23621542751789093,0.067242830991745,-0.034620072692632675
1789729841358676500,12.046676513671875,0.17762760818004608,0.07842778414487839,-0.06284874677658081
1789729841368613400,12.05661328125,0.12383333593606949,0.05073172226548195,-0.1278279572725296
1789729841378550000,12.066550048828125,0.07003907114267349,0.0038614696823060513,-0.1906767040491104
1789729841388486700,12.076486572265624,0.025831900537014008,-0.03928046673536301,-0.19973118603229523
1789729841398423300,12.08642333984375,-0.005592473316937685,-0.043541401624679565,-0.15073047578334808
1789729841408360000,12.09635986328125,-0.018907885998487473,0.007589785382151604,-0.0740336924791336
1789729841418296600,12.106296630859376,-0.010918638668954372,0.0874822586774826,0.00905448105186224
1789729841428233200,12.116233154296875,0.0077229393646121025,0.1631138026714325,0.0740336924791336
1789729841438169900,12.126169921875,0.023701434955000877,0.21957115828990936,0.11025162041187286
1789729841448106800,12.136106689453126,0.0370168462395668,0.235549658536911,0.1059906855225563
1789729841458043400,12.14604345703125,0.0482017956674099,0.20146219432353973,0.06071828305721283
1789729841467980000,12.15597998046875,0.05033225938677788,0.13808083534240723,0.022902509197592735
1789729841477917000,12.1659169921875,0.05512581020593643,0.06937330216169357,0.02343512699007988
1789729841487853600,12.175853515625,0.06790860742330551,0.022503048181533813,0.0639139786362648
1789729841497790500,12.18579052734375,0.10252867639064789,0.017176883295178413,0.13581721484661102
1789729841507727000,12.19572705078125,0.16377957165241241,0.07097115367650986,0.21943800151348114
1789729841517664000,12.2056640625,0.22609570622444153,0.14660269021987915,0.2860150635242462
1789729841527600600,12.2156005859375,0.2500634491443634,0.1945381760597229,0.3003957271575928
1789729841537537500,12.22553759765625,0.21224768459796906,0.18015754222869873,0.2444709837436676
1789729841547474200,12.23547412109375,0.13501828908920288,0.11464570462703705,0.15445879101753235
1789729841557411000,12.2454111328125,0.05565842613577843,0.04327509179711342,0.06977276504039764
1789729841567347700,12.25534765625,-0.0018641578499227762,-0.0025299284607172012,0.0063913981430232525
1789729841577284600,12.26528466796875,-0.021038351580500603,-0.008921326138079166,-0.0319569893181324
1789729841587221200,12.27522119140625,-0.011983871459960938,0.006524552125483751,-0.0532616525888443
1789729841597158100,12.285158203125,-0.0023967742454260588,0.0017310036346316338,-0.0857512578368187
1789729841607095000,12.295094970703126,-0.026897134259343147,-0.054193731397390366,-0.13688243925571442
1789729841617031700,12.30503173828125,-0.0689738392829895,-0.11917294561862946,-0.15552401542663574
1789729841626968600,12.314968505859374,-0.07856093347072601,-0.13195574283599854,-0.09054480493068695
1789729841636905200,12.3249052734375,-0.03169068321585655,-0.07656362652778625,0.0319569893181324
1789729841646842000,12.334842041015625,0.04447348043322563,0.017176883295178413,0.17363297939300537
1789729841656778800,12.34477880859375,0.10838746279478073,0.09760197252035141,0.2529928386211395
1789729841666715600,12.354715576171875,0.13661614060401917,0.1199718713760376,0.2119813710451126
1789729841676652300,12.36465234375,0.12596380710601807,0.08215609937906265,0.07616416364908218
1789729841686589200,12.374589111328126,0.0908111184835434,0.025698747485876083,-0.0852186381816864
1789729841696525800,12.38452587890625,0.06471290439367294,-0.008921326138079166,-0.18428531289100647
1789729841706462700,12.394462646484374,0.06258244067430496,-0.0025299284607172012,-0.20772044360637665
