time,seconds_elapsed,z,y,x
1789729829681234400,0.369234375,6.536170482635498,7.134122371673584,1.1216834783554077
1789729829691275300,0.379275146484375,6.598419666290283,7.086238384246826,1.0785878896713257
1789729829701316600,0.389316650390625,6.67982292175293,7.086238384246826,1.0402805805206299
1789729829711364000,0.399364013671875,6.8043212890625,7.105391979217529,1.035492181777954
1789729829721411600,0.40941162109375,6.890512466430664,7.114968776702881,1.0402805805206299
1789729829731217000,0.419216796875,6.933608055114746,7.095815181732178,1.0402805805206299
1789729829741031200,0.42903125,6.9910688400268555,7.071873188018799,0.9923965930938721
1789729829750850600,0.4388505859375,6.98628044128418,7.062296390533447,0.9445125460624695
1789729829760673300,0.44867333984375,6.890512466430664,7.076661586761475,0.8870517015457153
1789729829770498800,0.458498779296875,6.766014099121094,7.134122371673584,0.8104372620582581
1789729829780326700,0.46832666015625,6.675034523010254,7.186794757843018,0.729034423828125
1789729829790179800,0.478179931640625,6.631938934326172,7.1676411628723145,0.7146692276000977
1789729829800033500,0.488033447265625,6.598419666290283,7.129333972930908,0.7433996200561523
1789729829809888300,0.49788818359375,6.627150535583496,7.129333972930908,0.729034423828125
1789729829819759000,0.507759033203125,6.708553314208984,7.148487567901611,0.6955155730247498
1789729829829630200,0.517630126953125,6.799532890319824,7.119757175445557,0.7050924301147461
1789729829839504000,0.52750390625,6.861782073974609,7.110180377960205,0.7003039717674255
1789729829849380600,0.537380615234375,6.866570472717285,7.091026782989502,0.7003039717674255
1789729829859265000,0.54726513671875,6.847416877746582,7.08144998550415,0.7003039717674255
1789729829869149700,0.557149658203125,6.813898086547852,7.129333972930908,0.690727174282074
1789729829879036000,0.567035888671875,6.718130111694336,7.191583156585693,0.6955155730247498
1789729829888926500,0.576926513671875,6.607996463775635,7.196371555328369,0.7577648162841797
1789729829898816800,0.586816650390625,6.507440090179443,7.162852764129639,0.829590916633606
1789729829908710100,0.596710205078125,6.4595561027526855,7.186794757843018,0.8391677141189575
1789729829926678800,0.6146787109375,6.641515731811523,7.2801690101623535,0.889445960521698
1789729829936615000,0.624614990234375,6.799532890319824,7.2298903465271,0.9804255962371826
1789729829946552000,0.634552001953125,6.912060260772705,7.21791934967041,1.0307037830352783
1789729829956488200,0.64448828125,6.943184852600098,7.215525150299072,1.035492181777954
1789729829966421000,0.6544208984375,6.936002254486084,7.239467620849609,1.0283095836639404
1789729829976354800,0.664354736328125,6.933608055114746,7.270592212677002,1.0259153842926025
1789729829986289400,0.674289306640625,6.97430944442749,7.299322605133057,1.0283095836639404
1789729829996225500,0.6842255859375,6.943184852600098,7.253832817077637,1.095347285270691
1789729830006163000,0.694162841796875,6.868964672088623,7.215525150299072,1.1097124814987183
1789729830016101600,0.7041015625,6.777985095977783,7.256227016448975,1.0594342947006226
1789729830026040800,0.714040771484375,6.653486728668213,7.265803813934326,0.99479079246521
1789729830035980300,0.723980224609375,6.53377628326416,7.203554153442383,0.9660604000091553
1789729830045915400,0.733915283203125,6.476315498352051,7.191583156585693,0.9229647517204285
1789729830055850800,0.743850830078125,6.44279670715332,7.215525150299072,0.9157821536064148
1789729830065786000,0.7537861328125,6.53377628326416,7.292140007019043,0.9181763529777527
1789729830075722200,0.76372216796875,6.722918510437012,7.390900611877441,0.9588778018951416
1789729830085658400,0.773658447265625,6.797138690948486,7.374141216278076,1.0426748991012573
1789729830095595300,0.78359521484375,6.787561893463135,7.3454108238220215,1.116895079612732
1789729830105532700,0.79353271484375,6.732495307922363,7.4316020011901855,1.1408370733261108
1789729830115470800,0.803470947265625,6.610390663146973,7.524975776672363,1.1408370733261108
1789729830125407700,0.81340771484375,6.507440090179443,7.608773231506348,1.1336544752120972
1789729830137844000,0.825843994140625,6.478709697723389,7.781155586242676,1.116895079612732
1789729830147780600,0.835780517578125,6.507440090179443,7.790732383728027,1.1264718770980835
1789729830157717000,0.845717041015625,6.564900875091553,7.86734676361084,1.116895079612732
1789729830167653400,0.8556533203125,6.698976516723633,7.910442352294922,1.092953085899353
1789729830177589800,0.86558984375,6.9240312576293945,7.90086555480957,1.07379949092865
1789729830187529200,0.875529296875,7.101202011108398,7.848193168640137,1.07379949092865
1789729830197468700,0.88546875,7.101202011108398,7.814674377441406,1.0785878896713257
1789729830207426300,0.89542626953125,6.900089263916016,7.814674377441406,1.0546458959579468
1789729830217387000,0.905386962890625,6.62236213684082,7.881711959838867,1.0259153842926025
1789729830227373300,0.915373291015625,6.387730121612549,7.972691535949707,0.9780313968658447
1789729830237363200,0.92536328125,6.224924564361572,8.030152320861816,0.9205705523490906
1789729830247355400,0.93535546875,6.167463779449463,8.058882713317871,0.8678981065750122
1789729830257350400,0.945350341796875,6.186617374420166,8.125920295715332,0.7721300721168518
1789729830267347000,0.955346923828125,6.244078159332275,8.178592681884766,0.7003039717674255
1789729830277343500,0.965343505859375,6.210559368133545,8.097189903259277,0.7433996200561523
1789729830287340000,0.975340087890625,6.100425720214844,8.034940719604492,0.8008604645729065
1789729830297353500,0.985353515625,5.898714542388916,8.097189903259277,0.7960720658302307
1789729830309339000,0.9973388671875,5.439027786254883,8.279149055480957,0.645237386226654
1789729830319149800,1.00714990234375,5.309741020202637,8.360552787780762,0.5728127360343933
1789729830328973000,1.01697314453125,5.309741020202637,8.396465301513672,0.5297171473503113
1789729830338825500,1.026825439453125,5.429450988769531,8.355764389038086,0.49140989780426025
1789729830348701200,1.036701171875,5.606621742248535,8.279149055480957,0.39564183354377747
1789729830358603500,1.046603515625,5.745485305786133,8.221688270568848,0.21847090125083923
1789729830368535600,1.05653564453125,5.817311763763428,8.190564155578613,0.03651157766580582
1789729830378516500,1.0665166015625,5.750273704528809,8.145073890686035,-0.04728548228740692
1789729830388529200,1.076529052734375,5.594650745391846,8.109161376953125,-0.10474632680416107
1789729830398559700,1.086559814453125,5.436633586883545,8.097189903259277,-0.17417816817760468
1789729830408596200,1.09659619140625,5.2714338302612305,8.133103370666504,-0.20769700407981873
1789729830418532900,1.106532958984375,5.1134161949157715,8.188169479370117,-0.22445641458034515
1789729830428469200,1.11646923828125,5.022436618804932,8.276755332946777,-0.22924481332302094
1789729830438405600,1.126405517578125,4.9386396408081055,8.478466987609863,-0.27712884545326233
1789729830448342000,1.136342041015625,4.806359767913818,8.686761856079102,-0.29867666959762573
1789729830458278400,1.1462783203125,4.662707805633545,8.796895980834961,-0.26755204796791077
1789729830468214800,1.15621484375,4.547786235809326,8.904634475708008,-0.2579752206802368
1789729830478151400,1.1661513671875,4.547786235809326,9.007585525512695,-0.26755204796791077
1789729830488087800,1.176087890625,4.622006416320801,8.995614051818848,-0.2890998423099518
1789729830498024700,1.186024658203125,4.643554210662842,8.94533634185791,-0.29628247022628784
1789729830507960300,1.195960205078125,4.523844242095947,8.902240753173828,-0.33698388934135437
1789729830517896700,1.205896728515625,4.3610382080078125,8.859145164489746,-0.36332011222839355
1789729830527833600,1.21583349609375,4.135983467102051,8.859145164489746,-0.3345896899700165
1789729830537770000,1.22577001953125,3.8821980953216553,8.91421127319336,-0.3274070918560028
1789729830547706600,1.23570654296875,3.685275077819824,9.007585525512695,-0.3561375141143799
1789729830557643000,1.24564306640625,3.6493618488311768,9.06983470916748,-0.4231751561164856
1789729830567579400,1.255579345703125,3.6062662601470947,9.045892715454102,-0.48303020000457764
1789729830577515800,1.265515869140625,3.5009214878082275,9.0051908493042,-0.5746083855628967
1789729830587452200,1.2754521484375,3.359663486480713,9.0051908493042,-0.6751648783683777
1789729830597388800,1.285388916015625,3.206434726715088,9.029132843017578,-0.7230489253997803
1789729830607325200,1.2953251953125,2.9765913486480713,9.012373924255371,-0.6943184733390808
1789729830617261600,1.305261474609375,2.7323827743530273,8.998008728027344,-0.7254431247711182
1789729830627198000,1.315197998046875,2.559401512145996,9.060257911682129,-0.7829039692878723
1789729830637134300,1.32513427734375,2.4229321479797363,9.074623107910156,-0.7876923680305481
1789729830647070700,1.33507080078125,2.3319525718688965,9.01476764678955,-0.7086837291717529
1789729830657006800,1.3450068359375,2.296039342880249,8.971672058105469,-0.667982280254364
1789729830666943200,1.354943115234375,2.2912509441375732,8.942941665649414,-0.6967126727104187
1789729830676879600,1.364879638671875,2.3056161403656006,8.91181755065918,-0.7158663272857666
1789729830686816000,1.37481591796875,2.274491548538208,8.880692481994629,-0.6751648783683777
1789729830696752400,1.38475244140625,2.2026655673980713,8.861538887023926,-0.6200982332229614
1789729830706689300,1.394689208984375,2.1356279850006104,8.808866500854492,-0.5841852426528931
1789729830716626200,1.404626220703125,2.123656988143921,8.768165588378906,-0.5626373887062073
1789729830726562600,1.4145625,2.1068975925445557,8.753800392150879,-0.5291185975074768
1789729830736499000,1.4244990234375,2.0422539710998535,8.749011993408203,-0.46148237586021423
1789729830746435300,1.434435302734375,1.9752163887023926,8.775347709655762,-0.3968389332294464
1789729830756371700,1.444371826171875,1.9488801956176758,8.808866500854492,-0.3824737071990967
1789729830766308000,1.45430810546875,1.941697597503662,8.816049575805664,-0.3489548861980438
1789729830776244500,1.464244384765625,1.9991583824157715,8.818443298339844,-0.3345896899700165
1789729830786180900,1.474180908203125,2.140416383743286,8.839991569519043,-0.29628247022628784
1789729830796117200,1.4841171875,2.2385785579681396,8.89026927947998,-0.24839842319488525
1789729830806053400,1.494053466796875,2.274491548538208,8.935759544372559,-0.1909375786781311
1789729830815989800,1.50398974609375,2.3367409706115723,9.01476764678955,-0.15502455830574036
1789729830825926100,1.513926025390625,2.454056739807129,9.12729549407959,-0.10474632680416107
1789729830835862500,1.523862548828125,2.4875755310058594,9.201516151428223,-0.0017956512747332454
1789729830845799000,1.533798828125,2.473210334777832,9.206304550170898,0.07960720360279083
1789729830855735300,1.5437353515625,2.4660277366638184,9.254188537597656,0.09157821536064148
1789729830865671700,1.553671630859375,2.456450939178467,9.30925464630127,0.0867898091673851
1789729830875608000,1.563608154296875,2.4444799423217773,9.323619842529297,0.06524199992418289
1789729830885544400,1.57354443359375,2.537853717803955,9.321226119995117,0.055665191262960434
1789729830895481000,1.583481201171875,2.7299885749816895,9.258976936340332,0.09397241473197937
1789729830905417500,1.59341748046875,2.9215245246887207,9.165602684020996,0.08918401598930359
1789729830915353900,1.603353759765625,3.069965124130249,9.122507095336914,0.03651157766580582
1789729830925290200,1.613290283203125,3.180098295211792,9.136872291564941,-0.04967968538403511
1789729830935227000,1.623226806640625,3.199252128601074,9.117718696594238,-0.12868833541870117
1789729830945163300,1.633163330078125,3.153762102127075,9.134477615356445,-0.15502455830574036
1789729830955099600,1.643099609375,3.04602313041687,9.189544677734375,-0.13347674906253815
1789729830965036300,1.653036376953125,2.9239187240600586,9.280524253845215,-0.09038111567497253
1789729830974972700,1.66297265625,2.868852138519287,9.388263702392578,-0.10235211998224258
1789729830984909000,1.672908935546875,2.892794132232666,9.476848602294922,-0.11911153793334961
1789729830994845400,1.682845458984375,2.9239187240600586,9.476848602294922,-0.08080431073904037
1789729831004782800,1.692782958984375,2.873640537261963,9.43135929107666,-0.05925649031996727
1789729831014719500,1.702719482421875,2.830544948577881,9.416994094848633,-0.13347674906253815
1789729831024656000,1.71265576171875,2.8353333473205566,9.443329811096191,-0.22445641458034515
1789729831034592300,1.72259228515625,2.8616695404052734,9.393052101135254,-0.21009120345115662
1789729831044528600,1.732528564453125,2.866457939147949,9.323619842529297,-0.15502455830574036
1789729831054465000,1.742465087890625,2.9047651290893555,9.349956512451172,-0.14065934717655182
1789729831064401400,1.7524013671875,2.9311013221740723,9.409811019897461,-0.15981295704841614
1789729831074337800,1.762337890625,2.935889720916748,9.436147689819336,-0.17178396880626678
1789729831084274200,1.772274169921875,2.9718029499053955,9.462483406066895,-0.1933317929506302
1789729831094210600,1.78221044921875,3.022081136703491,9.493608474731445,-0.19572599232196808
1789729831104146700,1.792146728515625,3.0795419216156006,9.496002197265625,-0.14784196019172668
1789729831114083000,1.8020830078125,3.134608507156372,9.46727180480957,-0.03292027488350868
1789729831124019500,1.81201953125,3.1465795040130615,9.486425399780273,0.058059390634298325
1789729831133955800,1.821955810546875,3.093907117843628,9.510367393493652,0.12270283699035645
1789729831143892200,1.831892333984375,3.04602313041687,9.55585765838623,0.14903905987739563
1789729831153828600,1.84182861328125,3.0555999279022217,9.517550468444824,0.16101007163524628
1789729831163765000,1.851764892578125,3.0651767253875732,9.40023422241211,0.13946224749088287
1789729831173701400,1.861701416015625,3.072359323501587,9.270947456359863,0.07721300423145294
1789729831183638000,1.871637939453125,3.1010897159576416,9.213486671447754,-0.011372458189725876
1789729831193574400,1.881574462890625,3.1010897159576416,9.182361602783203,-0.06883329898118973
1789729831203510800,1.8915107421875,3.074753522872925,9.144054412841797,-0.10714052617549896
1789729831213447400,1.901447509765625,3.0579941272735596,9.139266014099121,-0.13826514780521393
1789729831223383800,1.9113837890625,3.005321741104126,9.170391082763672,-0.15263035893440247
1789729831233320200,1.9213203125,2.8999767303466797,9.199121475219727,-0.13108254969120026
1789729831243256800,1.9312568359375,2.804208755493164,9.244611740112305,-0.12629413604736328
1789729831253193200,1.941193115234375,2.741959571838379,9.318831443786621,-0.1430535465478897
1789729831263129600,1.951129638671875,2.672527551651001,9.37629222869873,-0.1454477459192276
1789729831273066000,1.96106591796875,2.6408045291900635,9.419387817382812,-0.1646013706922531
1789729831283002600,1.971002685546875,2.646191358566284,9.452906608581543,-0.18136078119277954
1789729831292939000,1.98093896484375,2.626439332962036,9.496002197265625,-0.15741875767707825
1789729831302875400,1.99087548828125,2.5929205417633057,9.510367393493652,-0.13587094843387604
1789729831312812000,2.00081201171875,2.646191358566284,9.5223388671875,-0.15981295704841614
1789729831322748400,2.01074853515625,2.737171173095703,9.486425399780273,-0.15741875767707825
1789729831332684800,2.020684814453125,2.7946319580078125,9.421782493591309,-0.1215057373046875
1789729831342621200,2.03062109375,2.7994203567504883,9.393052101135254,-0.11671733111143112
1789729831352557800,2.040557861328125,2.8353333473205566,9.39784049987793,-0.13587094843387604
1789729831362494200,2.050494140625,2.868852138519287,9.349956512451172,-0.13347674906253815
1789729831372430600,2.0604306640625,2.916736125946045,9.232640266418457,-0.15263035893440247
1789729831382367200,2.0703671875,2.9741971492767334,9.134477615356445,-0.20290859043598175
1789729831392303600,2.0803037109375,3.0388405323028564,9.091382026672363,-0.2651578485965729
1789729831402240000,2.090239990234375,3.0986955165863037,9.029132843017578,-0.3010708689689636
1789729831412176400,2.10017626953125,3.1513679027557373,8.969278335571289,-0.31543606519699097
1789729831422113000,2.110113037109375,3.20404052734375,8.94773006439209,-0.34656068682670593
1789729831432049400,2.12004931640625,3.206434726715088,8.94773006439209,-0.34656068682670593
1789729831441985800,2.12998583984375,3.1417911052703857,8.964489936828613,-0.36571431159973145
1789729831451922400,2.13992236328125,3.0555999279022217,9.043498039245605,-0.36810851097106934
1789729831461858800,2.14985888671875,2.9502551555633545,9.151237487792969,-0.36092591285705566
1789729831471795200,2.159795166015625,2.8592753410339355,9.24940013885498,-0.34177228808403015
1789729831481731600,2.169731689453125,2.787449359893799,9.321226119995117,-0.29149407148361206
1789729831491668200,2.179668212890625,2.7252001762390137,9.383475303649902,-0.20530278980731964
1789729831501604600,2.1896044921875,2.6773159503936768,9.438541412353516,-0.12868833541870117
1789729831511541000,2.199541015625,2.653373956680298,9.484031677246094,-0.04010287672281265
1789729831521477600,2.2094775390625,2.63362193107605,9.48882007598877,-0.023343466222286224
1789729831531414000,2.2194140625,2.6557681560516357,9.49121379852295,-0.10235211998224258
1789729831541350400,2.229350341796875,2.782660961151123,9.493608474731445,-0.15981295704841614
1789729831551287000,2.239287109375,2.892794132232666,9.460089683532715,-0.11432313174009323
1789729831561223400,2.249223388671875,2.8999767303466797,9.40023422241211,0.0077811554074287415
1789729831571159800,2.259159912109375,2.914341926574707,9.388263702392578,0.07481880486011505
1789729831581096200,2.26909619140625,2.852092742919922,9.460089683532715,0.09157821536064148
1789729831591032800,2.27903271484375,2.718017578125,9.5007905960083,0.09876082092523575
1789729831600969200,2.28896923828125,2.670133352279663,9.49121379852295,0.06763619929552078
1789729831610905600,2.298905517578125,2.6653449535369873,9.479243278503418,0.01735796220600605
1789729831620842200,2.30884228515625,2.6773159503936768,9.421782493591309,-0.025737667456269264
1789729831630778600,2.318778564453125,2.7682957649230957,9.366715431213379,-0.06643909960985184
1789729831640715000,2.328715087890625,2.8784289360046387,9.345168113708496,-0.0975637212395668
1789729831650652400,2.33865234375,3.00053334236145,9.335591316223145,-0.09038111567497253
1789729831660588800,2.3485888671875,3.0125043392181396,9.321226119995117,-0.07841010391712189
1789729831670525200,2.358525146484375,2.959831953048706,9.28531265258789,-0.076015904545784
1789729831680461800,2.3684619140625,2.8999767303466797,9.266159057617188,-0.10235211998224258
1789729831690397400,2.3783974609375,2.895188331604004,9.254188537597656,-0.10714052617549896
1789729831700333300,2.388333251953125,2.897582530975342,9.24940013885498,-0.12389993667602539
1789729831710269700,2.398269775390625,2.876034736633301,9.287707328796387,-0.15263035893440247
1789729831720206300,2.408206298828125,2.828150749206543,9.326014518737793,-0.12629413604736328
1789729831730143200,2.418143310546875,2.8113913536071777,9.316437721252441,-0.08798690885305405
1789729831740080600,2.42808056640625,2.8640637397766113,9.311649322509766,-0.07841010391712189
1789729831750017000,2.43801708984375,2.959831953048706,9.299677848815918,-0.07841010391712189
1789729831759953400,2.447953369140625,3.0651767253875732,9.282918930053711,-0.0736217051744461
1789729831769890300,2.457890380859375,3.1729156970977783,9.268553733825684,-0.08798690885305405
1789729831779826000,2.467825927734375,3.2351651191711426,9.235034942626953,-0.11671733111143112
1789729831789761300,2.47776123046875,3.2567129135131836,9.201516151428223,-0.1693897694349289
1789729831799697200,2.487697265625,3.2112231254577637,9.201516151428223,-0.20530278980731964
1789729831809633300,2.49763330078125,3.1417911052703857,9.19433307647705,-0.21009120345115662
1789729831819569700,2.507569580078125,3.067570924758911,9.220669746398926,-0.20769700407981873
1789729831829506300,2.51750634765625,3.007715940475464,9.24940013885498,-0.1909375786781311
1789729831839443200,2.527443115234375,2.9933507442474365,9.275735855102539,-0.1646013706922531
1789729831849380400,2.53738037109375,3.0340521335601807,9.292495727539062,-0.10714052617549896
1789729831859317200,2.547317138671875,3.072359323501587,9.299677848815918,-0.04010287672281265
1789729831869254400,2.55725439453125,3.110666513442993,9.292495727539062,0.0005985504249110818
1789729831879190800,2.567190673828125,3.180098295211792,9.294889450073242,0.012569558806717396
1789729831889127400,2.57712744140625,3.2399535179138184,9.30925464630127,0.01735796220600605
1789729831899063800,2.587063720703125,3.1896753311157227,9.287707328796387,0.050876785069704056
1789729831909000200,2.597000244140625,3.0867245197296143,9.268553733825684,0.0293289702385664
1789729831918936800,2.606936767578125,3.0196869373321533,9.316437721252441,-0.04010287672281265
1789729831928874500,2.61687451171875,3.029263734817505,9.345168113708496,-0.11432313174009323
1789729831938808300,2.626808349609375,3.0795419216156006,9.290101051330566,-0.15502455830574036
1789729831948742700,2.63674267578125,3.18249249458313,9.201516151428223,-0.17417816817760468
1789729831958677200,2.64667724609375,3.2974143028259277,9.12729549407959,-0.20530278980731964
1789729831968612900,2.65661279296875,3.402759075164795,9.081805229187012,-0.2124854028224945
1789729831978549500,2.666549560546875,3.488950490951538,9.067440032958984,-0.21966800093650818
1789729831988486700,2.676486572265625,3.5679590702056885,9.074623107910156,-0.2364274114370346
1789729831998424600,2.686424560546875,3.6110546588897705,9.067440032958984,-0.25079262256622314
1789729832008363300,2.69636328125,3.5895068645477295,9.029132843017578,-0.22685061395168304
1789729832018301200,2.70630126953125,3.5464112758636475,9.026739120483398,-0.20051439106464386
1789729832028237800,2.71623779296875,3.5057098865509033,9.065046310424805,-0.22206220030784607
1789729832038174200,2.72617431640625,3.445854902267456,9.112930297851562,-0.262763649225235
1789729832048110600,2.736110595703125,3.376422882080078,9.134477615356445,-0.284311443567276
1789729832058047000,2.746046875,3.3189620971679688,9.144054412841797,-0.284311443567276
1789729832067983600,2.755983642578125,3.3405098915100098,9.139266014099121,-0.27712884545326233
1789729832077919700,2.765919677734375,3.448249101638794,9.115324020385742,-0.2555810213088989
1789729832087856400,2.7758564453125,3.5416228771209717,9.091382026672363,-0.22685061395168304
1789729832097793000,2.78579296875,3.603872060775757,9.07222843170166,-0.22924481332302094
1789729832107729400,2.7957294921875,3.6804866790771484,9.10574722290039,-0.24121582508087158
1789729832117665800,2.805665771484375,3.66851544380188,9.117718696594238,-0.22685061395168304
1789729832127602200,2.815602294921875,3.5464112758636475,9.165602684020996,-0.19572599232196808
1789729832137538800,2.825538818359375,3.4171242713928223,9.254188537597656,-0.16220717132091522
1789729832147475200,2.83547509765625,3.3452982902526855,9.302072525024414,-0.13826514780521393
1789729832157412000,2.845412109375,3.3692402839660645,9.302072525024414,-0.12629413604736328
1789729832167347700,2.85534765625,3.3883938789367676,9.28531265258789,-0.10953472554683685
1789729832177283300,2.865283447265625,3.424306869506836,9.275735855102539,-0.11432313174009323
1789729832187219200,2.87521923828125,3.510498285293579,9.247005462646484,-0.09516951441764832
1789729832197155000,2.885155029296875,3.5703532695770264,9.21588134765625,-0.04967968538403511
1789729832207091500,2.895091552734375,3.599083662033081,9.196727752685547,0.005386953707784414
1789729832217028000,2.905028076171875,3.639785051345825,9.208698272705078,0.048482585698366165
1789729832226965000,2.914965087890625,3.663727045059204,9.203909873962402,0.10115502029657364
1789729832236902100,2.924902099609375,3.620631456375122,9.201516151428223,0.16579847037792206
1789729832246839600,2.934839599609375,3.5464112758636475,9.230246543884277,0.17537526786327362
1789729832256776200,2.944776123046875,3.4841620922088623,9.290101051330566,0.13706804811954498
1789729832266712000,2.954712158203125,3.426701068878174,9.299677848815918,0.12749123573303223
1789729832276647700,2.964647705078125,3.330933094024658,9.287707328796387,0.1322796493768692
1789729832286583800,2.974583740234375,3.230376720428467,9.304466247558594,0.12749123573303223
1789729832296520400,2.9845205078125,3.175309896469116,9.323619842529297,0.13946224749088287
1789729832306457000,2.99445703125,3.1633388996124268,9.330802917480469,0.17537526786327362
1789729832316394000,3.00439404296875,3.20404052734375,9.326014518737793,0.18495208024978638
1789729832326331400,3.014331298828125,3.3500866889953613,9.294889450073242,0.18974047899246216
1789729832336268500,3.0242685546875,3.5009214878082275,9.199121475219727,0.19452889263629913
1789729832346204000,3.034203857421875,3.5847184658050537,9.122507095336914,0.1777694821357727
1789729832356139300,3.04413916015625,3.558382272720337,9.110535621643066,0.11791443079710007
1789729832366075000,3.054074951171875,3.4530375003814697,9.10574722290039,0.04369417950510979
1789729832376010800,3.0640107421875,3.3500866889953613,9.141660690307617,-0.018555063754320145
1789729832385948200,3.0739482421875,3.2351651191711426,9.206304550170898,-0.03292027488350868
1789729832395885600,3.083885498046875,3.1298201084136963,9.28531265258789,-0.028131870552897453
1789729832405823000,3.093822998046875,3.053205728530884,9.323619842529297,-0.018555063754320145
1789729832415759600,3.103759521484375,3.0771477222442627,9.323619842529297,-0.025737667456269264
1789729832425696000,3.113696044921875,3.156156301498413,9.321226119995117,-0.05446808785200119
1789729832435632400,3.12363232421875,3.2567129135131836,9.326014518737793,-0.04967968538403511
1789729832445569000,3.133569091796875,3.362057685852051,9.30686092376709,-0.04010287672281265
1789729832455505400,3.14350537109375,3.4985272884368896,9.25179386138916,-0.028131870552897453
1789729832465441300,3.153441162109375,3.6110546588897705,9.187150001525879,0.010175357572734356
1789729832475377000,3.163376953125,3.603872060775757,9.117718696594238,0.0628477931022644
1789729832485313000,3.17331298828125,3.5224692821502686,9.153631210327148,0.02214636653661728
1789729832495249200,3.183249267578125,3.421912670135498,9.278130531311035,-0.06643909960985184
1789729832505185500,3.193185546875,3.3237504959106445,9.27334213256836,-0.06643909960985184
1789729832515122200,3.2031220703125,3.2327709197998047,9.256582260131836,-0.06404489278793335
1789729832525059000,3.21305908203125,3.117849111557007,9.316437721252441,-0.07841010391712189
1789729832534996000,3.222995849609375,2.9933507442474365,9.414599418640137,-0.08080431073904037
1789729832544932900,3.232932861328125,2.9478609561920166,9.428964614868164,-0.0520738884806633
1789729832554870000,3.2428701171875,2.957437753677368,9.383475303649902,-0.04249707981944084
1789729832564806400,3.252806396484375,2.9502551555633545,9.330802917480469,-0.07841010391712189
1789729832574742500,3.262742431640625,2.9502551555633545,9.266159057617188,-0.14784196019172668
1789729832584679000,3.272678955078125,3.0101101398468018,9.144054412841797,-0.2124854028224945
1789729832594615000,3.282614990234375,3.0579941272735596,8.986037254333496,-0.22685061395168304
1789729832604551200,3.29255126953125,3.026869535446167,8.863933563232422,-0.2651578485965729
1789729832614487600,3.302487548828125,3.026869535446167,8.792107582092285,-0.32022446393966675
1789729832624424000,3.312423828125,3.04602313041687,8.756194114685059,-0.3705027103424072
1789729832634360800,3.32236083984375,3.0412347316741943,8.705916404724121,-0.4231751561164856
1789729832644298200,3.33229833984375,3.0555999279022217,8.67718505859375,-0.4471171796321869
1789729832654234600,3.342234619140625,3.053205728530884,8.679579734802246,-0.4231751561164856
1789729832664169700,3.352169677734375,3.096301317214966,8.710704803466797,-0.3800795078277588
1789729832674105000,3.36210498046875,3.180098295211792,8.770559310913086,-0.2890998423099518
1789729832684040700,3.372040771484375,3.268683910369873,8.847173690795898,-0.21009120345115662
1789729832693976800,3.381976806640625,3.402759075164795,8.899846076965332,-0.10474632680416107
1789729832703913500,3.39191357421875,3.5296518802642822,8.938153266906738,0.01735796220600605
1789729832713850400,3.401850341796875,3.5703532695770264,9.012373924255371,0.07242459803819656
1789729832723787800,3.411787841796875,3.5631706714630127,9.156025886535645,0.06524199992418289
1789729832733725200,3.42172509765625,3.5631706714630127,9.318831443786621,0.048482585698366165
1789729832743663400,3.431663330078125,3.512892484664917,9.455301284790039,0.10354922711849213
1789729832753599000,3.441598876953125,3.4386723041534424,9.582193374633789,0.21607670187950134
1789729832763534800,3.451534912109375,3.397970676422119,9.68813705444336,0.2974795699119568
1789729832773470700,3.461470703125,3.3859996795654297,9.771934509277344,0.3908534348011017
1789729832783406600,3.471406494140625,3.405153274536133,9.769539833068848,0.49380409717559814
1789729832793343200,3.48134326171875,3.4626142978668213,9.726444244384766,0.5321113467216492
1789729832803280100,3.491280029296875,3.579930067062378,9.609128952026367,0.46746787428855896
1789729832813217000,3.501217041015625,3.692457675933838,9.486425399780273,0.3669114112854004
1789729832823154200,3.511154296875,3.759495258331299,9.330802917480469,0.28550854325294495
1789729832833091000,3.521091064453125,3.803189516067505,9.179967880249023,0.19692309200763702
1789729832843027500,3.53102734375,3.8319199085235596,9.053074836730957,0.10594342648983002
1789729832852964000,3.540964111328125,3.8343141078948975,8.916605949401855,0.02693476900458336
1789729832862900500,3.550900390625,3.824737310409546,8.78731918334961,-0.03292027488350868
1789729832872836900,3.5608369140625,3.8079779148101807,8.7083101272583,-0.06883329898118973
1789729832882773500,3.5707734375,3.7888240814208984,8.660426139831543,-0.09277531504631042
1789729832892710000,3.5807099609375,3.7403416633605957,8.595782279968262,-0.09038111567497253
1789729832902646300,3.590646240234375,3.694851875305176,8.564658164978027,-0.13108254969120026
1789729832912583000,3.6005830078125,3.6756980419158936,8.581417083740234,-0.16220717132091522
1789729832922518500,3.6105185546875,3.639785051345825,8.610147476196289,-0.15741875767707825
1789729832932454100,3.6204541015625,3.582324266433716,8.658031463623047,-0.11671733111143112
1789729832942390000,3.63039013671875,3.510498285293579,8.756194114685059,-0.0975637212395668
1789729832952326100,3.640326171875,3.4626142978668213,8.897452354431152,-0.0999579206109047
1789729832962262500,3.650262451171875,3.41951847076416,9.031527519226074,-0.08080431073904037
1789729832972199400,3.660199462890625,3.359663486480713,9.12729549407959,-0.04010287672281265
1789729832982136300,3.67013623046875,3.309385299682617,9.244611740112305,-0.025737667456269264
1789729832992073500,3.680073486328125,3.2974143028259277,9.37389850616455,-0.03770867735147476
1789729833002011100,3.69001123046875,3.2830491065979004,9.505578994750977,0.01975216343998909
1789729833011947500,3.699947509765625,3.2854433059692383,9.586981773376465,0.13946224749088287
1789729833021884000,3.7098837890625,3.2998085021972656,9.647436141967773,0.2495955228805542
1789729833031820300,3.7198203125,3.400364875793457,9.700108528137207,0.2998737692832947
1789729833041757200,3.729757080078125,3.5416228771209717,9.704896926879883,0.39564183354377747
1789729833051693000,3.739693115234375,3.539228677749634,9.62828254699707,0.5033808946609497
1789729833061629000,3.74962890625,3.4123358726501465,9.55585765838623,0.4985924959182739
1789729833071564800,3.759564697265625,3.3261446952819824,9.49121379852295,0.3429693877696991
1789729833081501200,3.769501220703125,3.330933094024658,9.30686092376709,0.2017114907503128
1789729833091438000,3.77943798828125,3.400364875793457,9.033921241760254,0.09636662155389786
1789729833101374700,3.789374755859375,3.5176808834075928,8.792107582092285,-0.0017956512747332454
1789729833111311600,3.7993115234375,3.709217071533203,8.646060943603516,-0.076015904545784
1789729833121249300,3.809249267578125,3.930082082748413,8.511985778808594,-0.09277531504631042
1789729833131184400,3.819184326171875,4.0545806884765625,8.406042098999023,-0.08319851011037827
1789729833141120000,3.8291201171875,4.116829872131348,8.434772491455078,-0.07841010391712189
1789729833151056400,3.839056396484375,4.107253074645996,8.543109893798828,-0.07122749835252762
1789729833160992800,3.84899267578125,4.021061897277832,8.653243064880371,-0.05925649031996727
1789729833170929400,3.858929443359375,3.949235677719116,8.727463722229004,-0.0017956512747332454
1789729833180866300,3.8688662109375,3.843890905380249,8.811261177062988,0.09636662155389786
1789729833190803700,3.8788037109375,3.6541502475738525,8.866327285766602,0.1538274586200714
1789729833200740400,3.888740234375,3.4769794940948486,8.935759544372559,0.14903905987739563
1789729833210677000,3.898677001953125,3.41951847076416,9.007585525512695,0.13706804811954498
1789729833220613400,3.90861328125,3.400364875793457,8.988431930541992,0.1538274586200714
1789729833230549800,3.9185498046875,3.4171242713928223,8.89026927947998,0.19931729137897491
1789729833240486400,3.928486328125,3.4338839054107666,8.828020095825195,0.18974047899246216
1789729833250422800,3.9384228515625,3.4841620922088623,8.835203170776367,0.15143325924873352
1789729833260359200,3.948359130859375,3.642179250717163,8.866327285766602,0.12030863761901855
1789729833270295600,3.958295654296875,3.884592294692993,8.842385292053223,0.13946224749088287
1789729833280232200,3.968232177734375,4.066551685333252,8.794501304626465,0.1777694821357727
1789729833290168600,3.97816845703125,4.224568843841553,8.811261177062988,0.2041056901216507
1789729833300105000,3.98810498046875,4.320336818695068,8.863933563232422,0.20889410376548767
1789729833310041600,3.99804150390625,4.413711071014404,8.916605949401855,0.17298106849193573
1789729833319978000,4.00797802734375,4.435258865356445,8.94773006439209,0.17058686912059784
1789729833329914400,4.017914306640625,4.325125217437744,8.97885513305664,0.16101007163524628
1789729833339850800,4.027850830078125,4.128800868988037,9.057863235473633,0.09636662155389786
1789729833349787400,4.037787353515625,3.9612066745758057,9.148842811584473,-0.028131870552897453
1789729833359723800,4.047723876953125,3.824737310409546,9.227851867675781,-0.0975637212395668
1789729833369660200,4.05766015625,3.6373908519744873,9.258976936340332,-0.12629413604736328
1789729833379596800,4.0675966796875,3.5057098865509033,9.323619842529297,-0.17896658182144165
1789729833389533200,4.077533203125,3.5057098865509033,9.448118209838867,-0.3106476664543152
1789729833399469600,4.087469482421875,3.553593873977661,9.543886184692383,-0.3082534670829773
1789729833409406200,4.09740625,3.4626142978668213,9.611522674560547,-0.22445641458034515
1789729833419342600,4.107342529296875,3.3716344833374023,9.767146110534668,-0.18136078119277954
1789729833429279000,4.117279052734375,3.3285388946533203,10.001777648925781,-0.11432313174009323
1789729833439215400,4.12721533203125,3.160944700241089,10.169371604919434,0.09636662155389786
1789729833449152000,4.137152099609375,2.890399932861328,10.214861869812012,0.33099839091300964
1789729833459088400,4.14708837890625,2.609679937362671,10.29865837097168,0.414795458316803
1789729833469024800,4.157024658203125,2.300827741622925,10.411186218261719,0.383670836687088
1789729833478961400,4.16696142578125,1.98958158493042,10.504559516906738,0.3597288131713867
1789729833488897800,4.176897705078125,1.8195933103561401,10.54526138305664,0.2735375463962555
1789729833498834200,4.186834228515625,1.764526605606079,10.521319389343262,0.26156654953956604
1789729833508770600,4.1967705078125,1.7142484188079834,10.392032623291016,0.3477577865123749
1789729833518707200,4.206707275390625,1.678335428237915,10.257957458496094,0.3693056106567383
1789729833528643600,4.2166435546875,1.7357962131500244,10.200496673583984,0.3166331648826599
1789729833538580000,4.226580078125,1.8076223134994507,10.133459091186523,0.2974795699119568
1789729833548516600,4.2365166015625,1.843535304069519,10.049661636352539,0.28790274262428284
1789729833558453000,4.246452880859375,1.9632453918457031,9.96825885772705,0.23762452602386475
1789729833568389400,4.256389404296875,2.1164743900299072,9.891644477844238,0.21128830313682556
1789729833578325800,4.26632568359375,2.169146776199341,9.795876502990723,0.2519897222518921
1789729833588262400,4.276262451171875,2.205059766769409,9.726444244384766,0.25677812099456787
1789729833598198800,4.28619873046875,2.231395959854126,9.731232643127441,0.16101007163524628
1789729833608135200,4.29613525390625,2.166752576828003,9.676166534423828,0.14903905987739563
1789729833618071800,4.30607177734375,2.073378562927246,9.546280860900879,0.09157821536064148
1789729833628008200,4.31600830078125,1.9273324012756348,9.496002197265625,0.03411737456917763
1789729833637944600,4.325944580078125,1.7357962131500244,9.512762069702148,0.07960720360279083
1789729833647881000,4.335880859375,1.522712230682373,9.548674583435059,0.17537526786327362
1789729833657817600,4.345817626953125,1.301847219467163,9.676166534423828,0.228047713637352
1789729833667754000,4.35575390625,1.1150994300842285,9.786299705505371,0.20889410376548767
1789729833677690400,4.3656904296875,0.983418345451355,9.769539833068848,0.16579847037792206
1789729833687627000,4.375626953125,0.9259575009346008,9.853337287902832,0.17298106849193573
1789729833697563400,4.3855634765625,0.9642647504806519,9.920374870300293,0.19452889263629913
1789729833707499800,4.395499755859375,1.1725603342056274,9.889249801635742,0.292691171169281
1789729833717436400,4.4054365234375,1.647210717201233,9.829395294189453,0.4626794755458832
1789729833727373600,4.41537353515625,2.0925323963165283,9.668983459472656,0.44592007994651794
1789729833737310200,4.425310302734375,2.3032219409942627,9.46487808227539,0.22086510062217712
1789729833747246600,4.43524658203125,2.341529369354248,9.323619842529297,0.18734627962112427
1789729833757183000,4.445182861328125,2.1164743900299072,9.134477615356445,0.1586158573627472
1789729833767119600,4.45511962890625,1.9081788063049316,9.108141899108887,0.048482585698366165
1789729833777055500,4.465055419921875,1.644816517829895,9.167996406555176,-0.011372458189725876
1789729833786991400,4.474991455078125,1.522712230682373,9.19433307647705,0.0077811554074287415
1789729833796927500,4.484927490234375,1.558625340461731,9.297284126281738,0.053270988166332245
1789729833806864400,4.494864501953125,1.5825673341751099,9.37629222869873,0.07481880486011505
1789729833816801300,4.50480126953125,1.5514427423477173,9.369110107421875,0.12030863761901855
1789729833826738200,4.51473828125,1.6328455209732056,9.503185272216797,0.02214636653661728
1789729833836675000,4.524675048828125,1.5849615335464478,9.5223388671875,-0.004189853090792894
1789729833846611500,4.534611572265625,1.4502876996994019,9.55825138092041,0.058059390634298325
1789729833856547000,4.544547119140625,1.3640964031219482,9.728838920593262,0.01735796220600605
1789729833866483700,4.554483642578125,1.268328309059143,9.798270225524902,0.01735796220600605
1789729833876420000,4.564420166015625,1.1534066200256348,9.774328231811523,0.10354922711849213
1789729833886356500,4.5743564453125,1.0456676483154297,9.800664901733398,0.12030863761901855
1789729833896293000,4.584293212890625,0.899621307849884,9.81263542175293,-0.008978256024420261
1789729833906229500,4.5942294921875,0.7894880175590515,9.733627319335938,-0.03770867735147476
1789729833916166000,4.604165771484375,0.839766263961792,9.683348655700684,0.23523031175136566
1789729833926102300,4.614102294921875,0.8661024570465088,9.81024169921875,-0.04010287672281265
1789729833936039000,4.624038818359375,0.5907692909240723,9.59715747833252,0.055665191262960434
1789729833945975300,4.633975341796875,0.6697779297828674,10.049661636352539,-0.5482721924781799
1789729833955911700,4.64391162109375,0.7416039705276489,10.15021800994873,-0.8786720037460327
1789729833965848600,4.6538486328125,0.801459014415741,9.726444244384766,-0.5602431893348694
1789729833975785500,4.663785400390625,0.8349778652191162,9.536704063415527,-0.33698388934135437
1789729833985722000,4.67372216796875,0.9163807034492493,9.702502250671387,-0.3561375141143799
1789729833995658800,4.68365869140625,0.9331400990486145,9.805453300476074,-0.4902127981185913
1789729834005595100,4.69359521484375,0.945111095905304,9.759963035583496,-0.5770025849342346
1789729834015531800,4.70353173828125,0.9929951429367065,9.702502250671387,-0.5506663918495178
1789729834025468200,4.71346826171875,0.9762357473373413,9.71926212310791,-0.5482721924781799
1789729834035404500,4.723404541015625,0.8158242106437683,9.774328231811523,-0.6129156351089478
1789729834045341000,4.7333408203125,0.7655459642410278,9.896432876586914,-0.6272808313369751
1789729834055277600,4.743277587890625,0.8421604633331299,10.032901763916016,-0.5841852426528931
1789729834065214000,4.7532138671875,0.9283517003059387,10.135852813720703,-0.6200982332229614
1789729834075150300,4.763150390625,1.0408791303634644,10.135852813720703,-0.6584054827690125
1789729834085087000,4.7730869140625,1.1294646263122559,10.035296440124512,-0.7469909191131592
1789729834095023400,4.7830234375,1.2755109071731567,9.949105262756348,-0.8188169598579407
1789729834104959700,4.792959716796875,1.4790180921554565,9.929951667785645,-0.9768342971801758
1789729834114896100,4.802896240234375,1.6639702320098877,9.915586471557617,-0.9600749015808105
1789729834124832800,4.812832763671875,1.742978811264038,10.040084838867188,-0.849941611289978
1789729834134769200,4.82276904296875,1.7597382068634033,10.145429611206055,-0.7781155705451965
1789729834144705500,4.83270556640625,1.678335428237915,10.152612686157227,-0.7158663272857666
1789729834154642200,4.84264208984375,1.5203180313110352,10.044873237609863,-0.6991068720817566
1789729834164578600,4.85257861328125,1.3784615993499756,9.874884605407715,-0.7493851184844971
1789729834174515000,4.862514892578125,1.268328309059143,9.695320129394531,-0.7015010714530945
1789729834184451300,4.872451416015625,1.081580638885498,9.621099472045898,-0.5530605912208557
1789729834194388000,4.882387939453125,0.7344213724136353,9.716867446899414,-0.3824737071990967
1789729834204324400,4.892324462890625,0.4183867573738098,9.798270225524902,-0.27473464608192444
1789729834214260700,4.9022607421875,0.21428105235099792,9.793481826782227,-0.10474632680416107
1789729834224197400,4.912197265625,0.09696517139673233,9.769539833068848,0.02693476900458336
1789729834234133800,4.9221337890625,0.07302315533161163,9.714473724365234,0.07721300423145294
1789729834244070100,4.932070068359375,0.09696517139673233,9.62828254699707,0.09157821536064148
1789729834254006800,4.9420068359375,0.09696517139673233,9.551069259643555,0.14185644686222076
1789729834263943200,4.951943115234375,0.04189852997660637,9.582193374633789,0.14664486050605774
1789729834273879600,4.961879638671875,-0.07302315533161163,9.592369079589844,0.18495208024978638
1789729834283816000,4.97181591796875,-0.16639702022075653,9.618705749511719,0.25677812099456787
1789729834293752600,4.981752685546875,-0.25977087020874023,9.63067626953125,0.2472013235092163
1789729834303689000,4.99168896484375,-0.27413609623908997,9.57979965209961,0.2256535142660141
1789729834313625300,5.001625244140625,-0.3363853394985199,9.592369079589844,0.24480712413787842
1789729834323562000,5.01156201171875,-0.6260837316513062,9.762357711791992,0.18734627962112427
1789729834333498400,5.021498291015625,-1.1438298225402832,9.925163269042969,0.14903905987739563
1789729834343434800,5.031434814453125,-1.447893500328064,10.11669921875,0.1538274586200714
1789729834353371100,5.04137109375,-1.7184382677078247,10.176554679870605,0.1825578808784485
1789729834363307800,5.051307861328125,-2.013523578643799,10.257957458496094,0.2017114907503128
1789729834373244200,5.061244140625,-2.3080103397369385,10.442310333251953,0.10833762586116791
1789729834383180500,5.0711806640625,-2.3965959548950195,10.471040725708008,0.1801636815071106
1789729834393117200,5.0811171875,-2.1164743900299072,10.432733535766602,0.16340427100658417
1789729834403053600,5.091053466796875,-1.670554280281067,10.38963794708252,0.03411737456917763
1789729834412990200,5.100990234375,-1.301847219467163,10.260351181030273,0.03172317147254944
1789729834422926800,5.1109267578125,-0.9977835416793823,10.212467193603516,-0.04010287672281265
1789729834432863200,5.12086328125,-0.6643909811973572,10.193313598632812,-0.15981295704841614
1789729834442799900,5.1307998046875,-0.37469255924224854,10.152612686157227,-0.19812019169330597
1789729834452736500,5.140736572265625,-0.13048399984836578,10.17176628112793,-0.24600422382354736
1789729834462673000,5.1506728515625,0.152031809091568,10.193313598632812,-0.4255693554878235
1789729834472609500,5.160609619140625,0.46627077460289,10.186131477355957,-0.5117605924606323
1789729834482546200,5.170546142578125,0.6602011322975159,10.152612686157227,-0.47824180126190186
1789729834492482800,5.18048291015625,0.7918822169303894,10.095151901245117,-0.4950011968612671
1789729834502419200,5.190419189453125,0.945111095905304,10.030508041381836,-0.5069721937179565
1789729834512355800,5.20035595703125,1.002571940422058,9.956287384033203,-0.3968389332294464
1789729834522292500,5.21029248046875,0.8565256595611572,9.9586820602417,-0.2867056429386139
1789729834532228900,5.220228759765625,0.6817489266395569,9.965864181518555,-0.1933317929506302
1789729834542165500,5.23016552734375,0.595557689666748,9.975440979003906,0.046088382601737976
1789729834552102100,5.24010205078125,0.535702645778656,9.908403396606445,0.2663549482822418
1789729834562038500,5.25003857421875,0.5620388388633728,9.836577415466309,0.3908534348011017
1789729834571975200,5.25997509765625,0.6482301354408264,9.666589736938477,0.47465047240257263
1789729834581912000,5.269912109375,0.6482301354408264,9.496002197265625,0.6356605291366577
1789729834591848000,5.279847900390625,0.4950011968612671,9.40023422241211,0.7553706169128418
1789729834601783600,5.289783447265625,0.3555389642715454,9.302072525024414,0.9205705523490906
1789729834611719400,5.299719482421875,0.23822307586669922,9.203909873962402,1.0522516965866089
1789729834621656300,5.30965625,0.010773907415568829,9.141660690307617,1.0833762884140015
1789729834631593700,5.31959375,-0.16879121959209442,9.098565101623535,1.0546458959579468
1789729834641531400,5.329531494140625,-0.2406172752380371,9.088988304138184,0.9995791912078857
1789729834651466800,5.339466796875,-0.28131869435310364,9.12729549407959,0.9900023937225342
1789729834661402000,5.349402099609375,-0.3172317147254944,9.172784805297852,0.9205705523490906
1789729834671337700,5.359337646484375,-0.36990416049957275,9.175179481506348,0.8415619134902954
1789729834681273900,5.36927392578125,-0.34596213698387146,9.141660690307617,0.8415619134902954
1789729834691210200,5.379210205078125,-0.22864626348018646,9.108141899108887,0.7529764175415039
1789729834701147400,5.3891474609375,-0.25019407272338867,9.055469512939453,0.5919663906097412
1789729834711085000,5.3990849609375,-0.4058171808719635,8.98124885559082,0.4339490532875061
1789729834721022700,5.409022705078125,-0.5710170865058899,8.875904083251953,0.30466216802597046
1789729834730959400,5.41895947265625,-0.669179379940033,8.784924507141113,0.16340427100658417
1789729834740896000,5.42889599609375,-0.6763619780540466,8.722675323486328,0.11791443079710007
1789729834750832000,5.43883203125,-0.6572083830833435,8.717886924743652,0.10115502029657364
1789729834760768500,5.4487685546875,-0.5231330990791321,8.76577091217041,0.01735796220600605
1789729834770704600,5.45870458984375,-0.29568392038345337,8.930971145629883,-0.04967968538403511
1789729834780641000,5.46864111328125,-0.13766659796237946,9.244611740112305,-0.023343466222286224
1789729834790577200,5.4785771484375,0.020350715145468712,9.599552154541016,-0.0736217051744461
1789729834800513500,5.488513427734375,0.23343466222286224,9.927556991577148,-0.27473464608192444
1789729834810450200,5.4984501953125,0.41120412945747375,10.243592262268066,-0.5171475410461426
1789729834820386800,5.50838671875,0.6338648796081543,10.535684585571289,-0.706289529800415
1789729834830323200,5.5183232421875,0.9187749028205872,10.814010620117188,-0.9289502501487732
1789729834840259800,5.528259765625,1.1294646263122559,11.132439613342285,-1.0821791887283325
1789729834850196500,5.538196533203125,1.2228385210037231,11.472415924072266,-1.0414776802062988
1789729834860132900,5.5481328125,1.3880383968353271,11.71662425994873,-0.8906430602073669
1789729834870069500,5.558069580078125,1.623268723487854,11.730989456176758,-0.6655880808830261
1789729834880006100,5.568006103515625,1.7286136150360107,11.460445404052734,-0.48063600063323975
1789729834889942500,5.577942626953125,1.7597382068634033,11.180323600769043,-0.36571431159973145
1789729834899879200,5.587879150390625,1.6041151285171509,10.969634056091309,-0.3058592677116394
1789729834909815800,5.59781591796875,1.2419921159744263,10.669759750366211,-0.20051439106464386
1789729834919752400,5.60775244140625,0.8517372608184814,10.44470500946045,-0.09277531504631042
1789729834929688800,5.617688720703125,0.45429977774620056,10.257957458496094,-0.030526071786880493
1789729834939625500,5.62762548828125,0.05147533491253853,10.085575103759766,0.08200141042470932
1789729834949562000,5.63756201171875,-0.30047231912612915,9.822212219238281,0.22086510062217712
1789729834959498500,5.64749853515625,-0.4920084476470947,9.575011253356934,0.24480712413787842
1789729834969435100,5.65743505859375,-0.48722004890441895,9.369110107421875,0.17058686912059784
1789729834979371800,5.667371826171875,-0.4297592043876648,9.275735855102539,0.1562216579914093
1789729834989308200,5.67730810546875,-0.37229835987091064,9.321226119995117,0.0628477931022644
1789729834999244800,5.687244873046875,-0.3315969407558441,9.452906608581543,-0.04967968538403511
1789729835009181400,5.697181396484375,-0.3363853394985199,9.567828178405762,-0.15981295704841614
1789729835019118000,5.7071181640625,-0.3172317147254944,9.635464668273926,-0.2795230448246002
1789729835029054500,5.717054443359375,-0.06344634294509888,9.633070945739746,-0.5291185975074768
1789729835038991000,5.7269912109375,0.3411737382411957,9.48882007598877,-0.7733271718025208
1789729835048927500,5.736927490234375,0.7775170207023621,9.287707328796387,-0.8978256583213806
1789729835058863900,5.74686376953125,1.083974838256836,9.12968921661377,-0.9552865028381348
1789729835068800500,5.756800537109375,1.1150994300842285,9.112930297851562,-0.9744400978088379
1789729835078737000,5.76673681640625,0.8301894664764404,9.34037971496582,-0.9074024558067322
1789729835088673300,5.77667333984375,0.3411737382411957,9.623494148254395,-0.8619126081466675
1789729835098609700,5.786609619140625,-0.14484919607639313,9.894038200378418,-0.6967126727104187
1789729835108546300,5.79654638671875,-0.5135562419891357,10.157401084899902,-0.5117605924606323
1789729835118482700,5.806482666015625,-0.7122750282287598,10.382455825805664,-0.4040215313434601
1789729835128419000,5.816419189453125,-0.7751228213310242,10.583568572998047,-0.32022446393966675
1789729835138355700,5.826355712890625,-0.7559691667556763,10.684124946594238,-0.24839842319488525
1789729835148292000,5.8362919921875,-0.5135562419891357,10.723031044006348,-0.3010708689689636
1789729835158228500,5.846228515625,-0.06823474913835526,10.669759750366211,-0.444722980260849
1789729835168164900,5.856164794921875,0.406415730714798,10.571598052978516,-0.545877993106842
1789729835178101500,5.8661015625,0.7703344225883484,10.521319389343262,-0.6703764796257019
1789729835188038000,5.876037841796875,1.0073603391647339,10.528501510620117,-0.8068459630012512
1789729835197974300,5.885974365234375,1.0384849309921265,10.619482040405273,-0.8451532125473022
1789729835207911000,5.895910888671875,0.839766263961792,10.8690767288208,-0.7134721279144287
1789729835217847300,5.905847412109375,0.6003460884094238,11.094132423400879,-0.6177040338516235
1789729835227783700,5.91578369140625,0.5117605924606323,11.209053993225098,-0.45429977774620056
1789729835237720300,5.92572021484375,0.6458359360694885,11.134833335876465,-0.12629413604736328
1789729835247656700,5.93565673828125,0.9259575009346008,10.931326866149902,0.28072014451026917
1789729835257593000,5.945593017578125,1.2132617235183716,10.66018295288086,0.7481880187988281
1789729835267529700,5.95552978515625,1.467047095298767,10.327388763427734,1.260547161102295
1789729835277466400,5.96546630859375,1.6160861253738403,9.987412452697754,1.6196774244308472
1789729835287402800,5.97540283203125,1.5418659448623657,9.704896926879883,1.775899052619934
1789729835297339400,5.98533935546875,1.2970588207244873,9.515155792236328,1.7926585674285889
1789729835307276000,5.995276123046875,0.9666589498519897,9.361927032470703,1.7058687210083008
1789729835317212400,6.00521240234375,0.6769605278968811,9.134477615356445,1.5622166395187378
1789729835327149000,6.015149169921875,0.657806932926178,8.883087158203125,1.4185645580291748
1789729835337085700,6.025085693359375,0.9068039059638977,8.691550254821777,1.1791443824768066
1789729835347022000,6.03502197265625,1.2132617235183716,8.526350975036621,0.9923965930938721
1789729835356958700,6.044958740234375,1.4790180921554565,8.315062522888184,0.872686505317688
1789729835366895600,6.0548955078125,1.678335428237915,8.101978302001953,0.6619967818260193
1789729835376832500,6.06483251953125,1.764526605606079,7.9176249504089355,0.436343252658844
1789729835386769200,6.07476904296875,1.9967641830444336,7.759607791900635,0.19692309200763702
1789729835396705500,6.08470556640625,2.2673089504241943,7.553706169128418,-0.03531447425484657
1789729835406642000,6.094641845703125,2.5067291259765625,7.443572998046875,-0.13347674906253815
1789729835416578600,6.10457861328125,2.7060465812683105,7.481880187988281,-0.19572599232196808
1789729835426515200,6.11451513671875,2.715623378753662,7.582436561584473,-0.23403321206569672
1789729835436451600,6.12445166015625,2.6437971591949463,7.73087739944458,-0.26994624733924866
1789729835446388200,6.13438818359375,2.6581623554229736,7.934384346008301,-0.36810851097106934
1789729835456324600,6.14432470703125,2.801814556121826,8.169015884399414,-0.4878185987472534
1789729835466261000,6.154260986328125,2.9023709297180176,8.439560890197754,-0.5434837937355042
1789729835476197600,6.16419775390625,2.8113913536071777,8.722675323486328,-0.5219359993934631
1789729835486134300,6.17413427734375,2.6581623554229736,9.074623107910156,-0.353743314743042
1789729835496071000,6.18407080078125,2.456450939178467,9.452906608581543,-0.15741875767707825
1789729835506007300,6.19400732421875,2.2864625453948975,9.798270225524902,-0.04728548228740692
1789729835515943700,6.203943603515625,2.3750481605529785,10.047266960144043,0.09157821536064148
1789729835525880300,6.21388037109375,2.6653449535369873,10.111910820007324,0.33339259028434753
1789729835535817000,6.22381689453125,3.1848866939544678,10.001777648925781,0.5919663906097412
1789729835545753300,6.23375341796875,3.7840356826782227,9.700108528137207,0.7864952683448792
1789729835555690000,6.24368994140625,4.435258865356445,9.208698272705078,0.9876081943511963
1789729835565626600,6.253626708984375,5.247491359710693,8.653243064880371,1.157596468925476
1789729835575563000,6.26356298828125,5.896320343017578,8.111555099487305,1.358709454536438
1789729835585499600,6.273499755859375,6.289567947387695,7.785943984985352,1.4664485454559326
1789729835595436000,6.28343603515625,6.356605529785156,7.714118003845215,1.4233529567718506
1789729835605372400,6.293372314453125,6.035782337188721,7.694964408874512,1.2629413604736328
1789729835615308800,6.303308837890625,5.395932197570801,7.649474620819092,0.9756371974945068
1789729835625245400,6.313245361328125,4.760869979858398,7.618350028991699,0.6859387755393982
1789729835635181800,6.323181884765625,4.198232650756836,7.5417351722717285,0.49140989780426025
1789729835645118200,6.3331181640625,3.803189516067505,7.438784599304199,0.2998737692832947
1789729835655054800,6.343054931640625,3.4985272884368896,7.376535415649414,0.08918401598930359
1789729835664991200,6.3529912109375,3.180098295211792,7.41484260559082,-0.10714052617549896
1789729835674927600,6.362927734375,2.7467479705810547,7.587224960327148,-0.13826514780521393
1789729835684864000,6.372864013671875,2.406172752380371,7.915230751037598,-0.04010287672281265
1789729835694800600,6.382800537109375,2.5019407272338867,8.307879447937012,0.04369417950510979
1789729835704737000,6.392737060546875,2.8401217460632324,8.598176956176758,0.046088382601737976
1789729835714673400,6.40267333984375,3.0843303203582764,8.760982513427734,-0.013766659423708916
1789729835724610000,6.412610107421875,3.227982521057129,8.91181755065918,-0.1215057373046875
1789729835734546400,6.42254638671875,3.4410665035247803,9.081805229187012,-0.284311443567276
1789729835744482800,6.43248291015625,3.6278140544891357,9.247005462646484,-0.5219359993934631
1789729835754419500,6.44241943359375,3.7475242614746094,9.3643217086792,-0.7805097699165344
1789729835764355800,6.45235595703125,3.803189516067505,9.457695007324219,-0.9959878921508789
1789729835774292500,6.46229248046875,3.7912182807922363,9.599552154541016,-1.2114660739898682
1789729835784229000,6.47222900390625,3.8941690921783447,9.769539833068848,-1.4748282432556152
1789729835794165500,6.48216552734375,4.049792289733887,9.977835655212402,-1.6645687818527222
1789729835804102100,6.49210205078125,4.009090900421143,10.24119758605957,-1.690904974937439
1789729835814038800,6.502038818359375,3.716399669647217,10.585963249206543,-1.623268723487854
1789729835823975400,6.511975341796875,3.335721492767334,11.0486421585083,-1.4915876388549805
1789729835833911800,6.521911865234375,3.0795419216156006,11.584943771362305,-1.2665326595306396
1789729835843848400,6.531848388671875,3.1417911052703857,12.064382553100586,-1.0893617868423462
1789729835853785000,6.54178515625,3.57753586769104,12.294225692749023,-0.8906430602073669
1789729835863721500,6.551721435546875,4.176684856414795,12.174515724182129,-0.6512228846549988
1789729835873658000,6.561658203125,4.617218017578125,11.899182319641113,-0.34656068682670593
1789729835883594800,6.5715947265625,4.969764232635498,11.628039360046387,-0.1215057373046875
1789729835893531100,6.58153125,5.151723384857178,11.235389709472656,0.15143325924873352
1789729835903467800,6.5914677734375,5.233126163482666,10.794857025146484,0.4578910768032074
1789729835913404400,6.601404296875,5.297770023345947,10.346542358398438,0.7050924301147461
1789729835923340800,6.6113408203125,5.261856555938721,9.850942611694336,0.9157821536064148
1789729835933277400,6.62127734375,5.163694381713867,9.393052101135254,0.8942343592643738
1789729835943214000,6.631214111328125,5.18284797668457,8.91421127319336,0.6739677786827087
1789729835953150700,6.641150634765625,5.139752388000488,8.35097599029541,0.579995334148407
1789729835963087000,6.651087158203125,4.6938323974609375,7.869740962982178,0.6715735793113708
1789729835973023700,6.661023681640625,4.013879299163818,7.558494567871094,0.767341673374176
1789729835982960400,6.67096044921875,3.3452982902526855,7.332841396331787,0.8678981065750122
1789729835992896800,6.680896728515625,2.7898435592651367,7.088632583618164,0.9660604000091553
1789729836002833400,6.69083349609375,2.2864625453948975,6.846818447113037,0.9780313968658447
1789729836012770000,6.70077001953125,1.7334020137786865,6.509235858917236,0.8343793153762817
1789729836022706400,6.71070654296875,1.1893197298049927,6.099228858947754,0.6835445761680603
1789729836032643000,6.72064306640625,0.8062474131584167,5.668272495269775,0.5297171473503113
1789729836042579700,6.730579833984375,0.641047477722168,5.349843502044678,0.4100070297718048
1789729836052516400,6.740516357421875,0.3603273630142212,5.421669960021973,0.39564183354377747
1789729836062452700,6.75045263671875,0.45908817648887634,5.486313343048096,0.5081692934036255
1789729836072389400,6.760389404296875,0.7272387742996216,5.9340291023254395,0.6859387755393982
1789729836082326000,6.770325927734375,0.25498247146606445,6.4398040771484375,0.729034423828125
1789729836092262400,6.780262451171875,-0.6141127347946167,6.779780864715576,0.729034423828125
1789729836102199000,6.790198974609375,-1.1869255304336548,7.098209381103516,0.8487445116043091
1789729836112135700,6.8001357421875,-0.8924387097358704,7.4770917892456055,0.750582218170166
1789729836122072600,6.810072509765625,-0.25737667083740234,7.726089000701904,0.414795458316803
1789729836132009000,6.820009033203125,0.28371289372444153,7.797914981842041,0.14185644686222076
1789729836141945000,6.829945068359375,0.961870551109314,8.042123794555664,0.03651157766580582
1789729836151881700,6.8398818359375,1.0791864395141602,8.631695747375488,0.19213469326496124
1789729836161818400,6.849818359375,0.5069721937179565,9.177573204040527,0.41718965768814087
1789729836171755000,6.859755126953125,-0.18555063009262085,9.479243278503418,0.41958385705947876
1789729836181691400,6.86969140625,-0.628477931022644,9.671378135681152,0.292691171169281
1789729836191628000,6.8796279296875,-0.48961424827575684,9.949105262756348,0.060453593730926514
1789729836201564700,6.889564697265625,-0.21428105235099792,10.214861869812012,-0.24839842319488525
1789729836211501600,6.89950146484375,-0.20709845423698425,10.63624095916748,-0.5770025849342346
1789729836221438000,6.90943798828125,-0.21667525172233582,11.187505722045898,-0.8547300100326538
1789729836231374300,6.919374267578125,0.06584054976701736,11.673528671264648,-1.0654197931289673
1789729836241311000,6.92931103515625,0.4231751561164856,11.96861457824707,-1.1635819673538208
1789729836251247400,6.939247314453125,0.6697779297828674,12.078747749328613,-1.2210428714752197
1789729836261184000,6.94918408203125,0.7224503755569458,12.085929870605469,-1.1348515748977661
1789729836271120600,6.95912060546875,0.657806932926178,12.107478141784668,-0.8643068075180054
1789729836281057300,6.969057373046875,0.30047231912612915,12.236764907836914,-0.7709329724311829
1789729836290994000,6.978993896484375,-0.017956512048840523,12.344504356384277,-0.751779317855835
1789729836300930300,6.988930419921875,-0.16400282084941864,12.291831970214844,-0.5339069962501526
1789729836310866700,6.99886669921875,-0.27892449498176575,12.253523826599121,-0.29388827085494995
1789729836320803800,7.008803955078125,-0.3842693865299225,12.231976509094238,-0.34656068682670593
1789729836330739700,7.01873974609375,-0.243011474609375,12.033257484436035,-0.2388216257095337
1789729836340675600,7.028675537109375,0.1041477769613266,11.596914291381836,0.02214636653661728
1789729836350611700,7.03861181640625,0.41120412945747375,11.271303176879883,-0.023343466222286224
1789729836360547800,7.0485478515625,0.7032967209815979,11.273696899414062,-0.2603694200515747
1789729836370484200,7.058484130859375,1.060032844543457,11.249754905700684,-0.31783026456832886
1789729836380420900,7.0684208984375,1.301847219467163,11.007941246032715,-0.15741875767707825
1789729836390357800,7.078357666015625,1.1007342338562012,10.837952613830566,0.07960720360279083
1789729836400295400,7.08829541015625,0.5811924338340759,10.730213165283203,0.20889410376548767
1789729836410232300,7.098232421875,0.09217676520347595,10.662577629089355,0.33099839091300964
1789729836420169000,7.1081689453125,-0.1280897855758667,10.516530990600586,0.40282443165779114
1789729836430105600,7.118105712890625,-0.008379706181585789,10.202890396118164,0.37648820877075195
1789729836440042000,7.1280419921875,0.13766659796237946,9.944316864013672,0.13706804811954498
1789729836449978600,7.137978515625,0.8661024570465088,9.973047256469727,-0.3561375141143799
1789729836459915000,7.1479150390625,0.8182184100151062,9.428964614868164,0.3669114112854004
1789729836469851400,7.157851318359375,0.43993455171585083,9.189544677734375,0.37888240814208984
1789729836479788000,7.1677880859375,0.1472434103488922,9.124900817871094,0.3932476341724396
1789729836489724400,7.177724365234375,-0.1759738177061081,9.079411506652832,0.5656301379203796
1789729836499660800,7.187660888671875,-1.127070426940918,9.151237487792969,0.7457938194274902
1789729836509597200,7.19759716796875,-1.7830817699432373,9.136872291564941,0.7362170219421387
1789729836519533800,7.207533935546875,-1.6777368783950806,9.021950721740723,0.7601590156555176
1789729836529470200,7.21747021484375,-1.0097545385360718,8.921394348144531,0.6859387755393982
1789729836539406600,7.227406494140625,-0.4513070285320282,8.650849342346191,0.6236895322799683
1789729836549343200,7.23734326171875,-0.013168109580874443,8.092401504516602,0.5129576921463013
1789729836559279600,7.247279541015625,0.47824180126190186,7.5201873779296875,0.35254621505737305
1789729836569216000,7.257216064453125,0.28131869435310364,7.436390399932861,0.4602852761745453
1789729836579152600,7.267152587890625,0.1759738177061081,7.357381820678711,0.42197805643081665
1789729836589089300,7.27708935546875,0.19033902883529663,7.246650218963623,0.2950853705406189
1789729836599025700,7.287025634765625,0.0347159244120121,7.429207801818848,0.12030863761901855
1789729836608962300,7.29696240234375,0.07062894850969315,7.704541206359863,0.08918401598930359
1789729836618899000,7.30689892578125,0.7368155717849731,8.066065788269043,0.11312603205442429
1789729836628835600,7.316835693359375,1.4814122915267944,8.312667846679688,0.18974047899246216
1789729836638772000,7.32677197265625,1.968033790588379,8.434772491455078,0.26156654953956604
1789729836648709600,7.336709716796875,2.3127987384796143,8.403648376464844,0.292691171169281
1789729836658646300,7.346646240234375,2.5665841102600098,8.343792915344238,0.3621230125427246
1789729836668583000,7.3565830078125,2.6868927478790283,8.343792915344238,0.5273229479789734
1789729836678519600,7.36651953125,2.4660277366638184,8.245630264282227,0.6260837316513062
1789729836688456200,7.376456298828125,1.9536685943603516,8.195352554321289,0.690727174282074
1789729836698393000,7.38639306640625,1.580173134803772,8.159439086914062,0.5440823435783386
1789729836708328700,7.39632861328125,1.349731206893921,8.192957878112793,0.32381579279899597
1789729836718264600,7.4062646484375,1.2443863153457642,8.310274124145508,0.10354922711849213
1789729836728200400,7.416200439453125,1.4215573072433472,8.504802703857422,-0.0999579206109047
1789729836738137600,7.4261376953125,1.6089035272598267,8.727463722229004,-0.14784196019172668
1789729836748075500,7.436075439453125,1.8986018896102905,8.916605949401855,-0.17657238245010376
1789729836758012000,7.446011962890625,2.183511972427368,9.045892715454102,-0.36810851097106934
1789729836767949000,7.455948974609375,2.3535003662109375,9.10574722290039,-0.6344634294509888
1789729836777884700,7.465884765625,2.410961151123047,9.062651634216309,-0.8427590131759644
1789729836787821000,7.475821044921875,2.4827871322631836,9.196727752685547,-0.8547300100326538
1789729836797757700,7.4857578125,2.713229179382324,9.637859344482422,-0.7350199222564697
1789729836807694000,7.495694091796875,2.873640537261963,10.145429611206055,-0.6967126727104187
1789729836817630500,7.50563037109375,2.780266761779785,10.676942825317383,-0.5841852426528931
1789729836827566800,7.51556689453125,2.6144683361053467,11.156381607055664,-0.5889736413955688
1789729836837503700,7.525503662109375,2.5282769203186035,11.537059783935547,-0.5171475410461426
1789729836847441200,7.535441162109375,2.609679937362671,11.77408504486084,-0.20051439106464386
1789729836857377800,7.545377685546875,2.9909565448760986,11.7046537399292,0.07481880486011505
1789729836867314200,7.555314208984375,3.5871126651763916,11.331157684326172,0.21128830313682556
1789729836877250300,7.565250244140625,4.135983467102051,10.797250747680664,0.26396074891090393
1789729836887187000,7.57518701171875,4.423287868499756,10.327388763427734,0.3645172119140625
1789729836897123800,7.585123779296875,4.2078094482421875,10.052056312561035,0.6212953329086304
1789729836907060500,7.595060546875,3.5942952632904053,9.889249801635742,0.8966285586357117
1789729836916997000,7.6049970703125,2.9885623455047607,9.853337287902832,1.2222399711608887
1789729836926932500,7.614932373046875,2.52109432220459,9.860519409179688,1.4975731372833252
1789729836936868400,7.624868408203125,2.248155355453491,9.78869342803955,1.6627731323242188
1789729836946804200,7.63480419921875,2.1571757793426514,9.747992515563965,1.7130513191223145
1789729836956740600,7.64474072265625,2.188300371170044,9.68813705444336,1.6124948263168335
1789729836966677800,7.654677734375,2.123656988143921,9.543886184692383,1.4832079410552979
1789729836976615200,7.664615234375,1.9728221893310547,9.242217063903809,1.3515268564224243
1789729836986552800,7.674552734375,1.9488801956176758,8.772953987121582,1.2222399711608887
1789729836996489700,7.68448974609375,2.231395959854126,8.221688270568848,1.0019733905792236
1789729837006426400,7.69442626953125,2.7467479705810547,7.738059997558594,0.5656301379203796
1789729837016362800,7.70436279296875,3.20404052734375,7.529764175415039,-0.13587094843387604
1789729837026299400,7.71429931640625,3.1298201084136963,7.702147006988525,-0.8643068075180054
1789729837036236000,7.724236083984375,2.360682964324951,8.109161376953125,-1.2545616626739502
1789729837046172400,7.73417236328125,1.4287399053573608,8.693944931030273,-1.139639973640442
1789729837056109000,7.744109130859375,0.9642647504806519,9.3427734375,-0.7086837291717529
1789729837066045700,7.754045654296875,0.9882067441940308,9.870096206665039,-0.262763649225235
1789729837075982000,7.763982177734375,1.4215573072433472,10.104728698730469,0.050876785069704056
1789729837085918700,7.773918701171875,2.1140801906585693,9.99459457397461,0.06763619929552078
1789729837095855400,7.78385546875,2.672527551651001,9.606734275817871,-0.10714052617549896
1789729837105791700,7.793791748046875,3.0627825260162354,9.294889450073242,-0.33937808871269226
1789729837115728400,7.803728271484375,3.20404052734375,9.120112419128418,-0.49978959560394287
1789729837125665000,7.8136650390625,2.9718029499053955,9.100958824157715,-0.4902127981185913
1789729837135601700,7.8236015625,2.5665841102600098,9.25179386138916,-0.5291185975074768
1789729837145538600,7.83353857421875,2.0877439975738525,9.57979965209961,-0.5793967843055725
1789729837155474700,7.843474609375,1.623268723487854,9.96825885772705,-0.6488286852836609
1789729837165411000,7.8534111328125,1.3593080043792725,10.303446769714355,-0.5985504388809204
1789729837175347200,7.86334716796875,1.1965023279190063,10.538078308105469,-0.5093663930892944
1789729837185283600,7.87328369140625,1.2419921159744263,10.533289909362793,-0.3824737071990967
1789729837195220000,7.883219970703125,1.7621324062347412,10.447098731994629,-0.38726213574409485
1789729837205156600,7.893156494140625,2.4420857429504395,10.308235168457031,-0.5093663930892944
1789729837215093200,7.90309326171875,2.911947727203369,10.109517097473145,-0.5937620401382446
1789729837225030000,7.91302978515625,2.890399932861328,9.980229377746582,-0.5985504388809204
1789729837234966500,7.922966552734375,2.5043349266052246,10.152612686157227,-0.5626373887062073
1789729837244903200,7.932903076171875,2.030282974243164,10.60272216796875,-0.375291109085083
1789729837254839800,7.94283984375,1.6831238269805908,11.12765121459961,0.010175357572734356
1789729837264776400,7.9527763671875,1.742978811264038,11.493964195251465,0.5321113467216492
1789729837274713000,7.962713134765625,2.3271639347076416,11.55621337890625,0.9516952037811279
1789729837284650200,7.972650146484375,3.1633388996124268,11.28806209564209,1.1025298833847046
1789729837294587100,7.982587158203125,3.8343141078948975,10.847529411315918,1.0905588865280151
1789729837304522800,7.992522705078125,4.059369087219238,10.289081573486328,1.0857704877853394
1789729837314458600,8.002458740234376,3.737947463989258,9.975440979003906,0.8870517015457153
1789729837324394800,8.012394775390625,2.935889720916748,9.886856079101562,0.558447539806366
1789729837334331100,8.0223310546875,2.0925323963165283,9.819818496704102,0.3477577865123749
1789729837344268000,8.03226806640625,1.4814122915267944,9.807847023010254,0.2711433470249176
1789729837354205000,8.042204833984375,1.0959458351135254,9.896432876586914,0.19931729137897491
1789729837364142000,8.05214208984375,0.7200561761856079,9.996989250183105,0.23283611238002777
1789729837374079200,8.062079345703125,0.406415730714798,9.944316864013672,0.3908534348011017
1789729837384016600,8.0720166015625,0.4710591733455658,9.71926212310791,0.40282443165779114
1789729837393952500,8.081952392578126,0.8373720645904541,9.46727180480957,0.16819266974925995
1789729837403888400,8.091888427734375,1.1318588256835938,9.237428665161133,-0.15741875767707825
1789729837413824300,8.10182421875,0.9714473485946655,9.048286437988281,-0.43754035234451294
1789729837423761000,8.111760986328125,0.47584760189056396,8.751405715942383,-0.43993455171585083
1789729837433698000,8.121697998046875,0.27413609623908997,8.432378768920898,-0.29149407148361206
1789729837443635000,8.131635009765626,0.4471171796321869,8.209717750549316,-0.05686229094862938
1789729837453572400,8.141572265625,0.9091981053352356,8.152256965637207,0.09157821536064148
1789729837463509000,8.151509033203125,1.4335283041000366,8.169015884399414,0.08918401598930359
1789729837473445600,8.161445556640626,1.6759412288665771,8.226476669311523,-0.008978256024420261
1789729837483382000,8.171382080078125,1.4742296934127808,8.329427719116211,-0.18136078119277954
1789729837493318700,8.181318603515624,1.0743980407714844,8.4108304977417,-0.353743314743042
1789729837503255300,8.19125537109375,0.6554127335548401,8.511985778808594,-0.40880993008613586
1789729837513191400,8.20119140625,0.28371289372444153,8.725069999694824,-0.3298012912273407
1789729837523128300,8.21112841796875,0.24779987335205078,8.995614051818848,-0.27712884545326233
1789729837533065000,8.22106494140625,0.6027402877807617,9.187150001525879,-0.3489548861980438
1789729837543001600,8.231001708984374,1.1150994300842285,9.237428665161133,-0.45669397711753845
1789729837552937700,8.240937744140625,1.5969325304031372,9.278130531311035,-0.6488286852836609
1789729837562873600,8.25087353515625,1.9153614044189453,9.388263702392578,-0.7469909191131592
1789729837572809700,8.260809814453125,1.968033790588379,9.640253067016602,-0.7015010714530945
1789729837582746400,8.270746337890625,1.845929503440857,9.941922187805176,-0.5171475410461426
1789729837592682800,8.280682861328126,1.8315643072128296,10.035296440124512,-0.29388827085494995
1789729837602619600,8.29061962890625,2.1140801906585693,9.944316864013672,-0.1430535465478897
1789729837612557800,8.300557861328125,2.367865562438965,9.7791166305542,-0.17417816817760468
1789729837622494500,8.310494384765626,2.3798365592956543,9.546280860900879,-0.20530278980731964
1789729837632431000,8.32043115234375,2.166752576828003,9.457695007324219,-0.11192893236875534
1789729837642367200,8.3303671875,1.7764976024627686,9.469666481018066,0.055665191262960434
1789729837652303000,8.34030322265625,1.558625340461731,9.551069259643555,0.2519897222518921
1789729837662239500,8.350239501953125,1.3401544094085693,9.740809440612793,0.4842272996902466
1789729837672175900,8.36017578125,0.9642647504806519,10.013748168945312,0.5895721912384033
1789729837682112500,8.370112548828125,0.6625953316688538,10.303446769714355,0.5512649416923523
1789729837692049200,8.380049072265624,0.5476736426353455,10.542867660522461,0.5536591410636902
1789729837701986300,8.389986328125,0.6242880821228027,10.497377395629883,0.7266402244567871
1789729837711923200,8.399923095703125,0.9810241460800171,10.29865837097168,0.8631097078323364
1789729837721860000,8.409860107421874,1.445499300956726,10.064026832580566,0.93254154920578
1789729837731797000,8.419796875,1.9153614044189453,9.803058624267578,0.9133879542350769
1789729837741733400,8.4297333984375,2.3032219409942627,9.503185272216797,0.8056488633155823
1789729837751670000,8.439669921875,2.2409727573394775,9.191938400268555,0.5201402902603149
1789729837761606400,8.4496064453125,1.8842366933822632,9.139266014099121,0.1801636815071106
1789729837771542800,8.459542724609374,1.5418659448623657,9.361927032470703,0.02693476900458336
1789729837781479400,8.4694794921875,1.0983400344848633,9.635464668273926,0.1777694821357727
1789729837791415800,8.479415771484375,0.8325836658477783,9.7791166305542,0.5273229479789734
1789729837801352700,8.489352783203126,0.8158242106437683,9.7791166305542,0.9828197956085205
1789729837811289900,8.499289794921875,0.861314058303833,9.759963035583496,1.1743559837341309
1789729837821226500,8.5092265625,1.081580638885498,9.657012939453125,1.0809820890426636
1789729837831163100,8.5191630859375,1.2587515115737915,9.496002197265625,0.9373299479484558
1789729837841099500,8.529099609375,1.1629834175109863,9.412205696105957,0.7984662652015686
1789729837851036000,8.539035888671876,0.8086416125297546,9.515155792236328,0.7122750282287598
1789729837860972300,8.54897216796875,0.45190557837486267,9.704896926879883,0.7338228225708008
1789729837870908700,8.55890869140625,0.07062894850969315,9.77672290802002,0.9038111567497253
1789729837880845000,8.568844970703125,-0.07302315533161163,9.738415718078613,1.1264718770980835
1789729837890781400,8.578781494140625,0.0347159244120121,9.975440979003906,1.3036428689956665
1789729837900719000,8.588718994140624,0.2908954918384552,10.126276016235352,1.3467384576797485
1789729837910656000,8.598656005859375,0.7559691667556763,9.882067680358887,1.358709454536438
1789729837920592400,8.60859228515625,1.3305776119232178,9.378686904907227,1.2701239585876465
1789729837930528500,8.618528564453126,1.9393033981323242,8.804078102111816,1.0666168928146362
1789729837940465400,8.62846533203125,2.3032219409942627,8.339004516601562,0.7386112213134766
1789729837950402300,8.63840234375,2.209848165512085,8.094796180725098,0.23283611238002777
1789729837960339000,8.6483388671875,1.742978811264038,8.24084186553955,-0.262763649225235
1789729837970275300,8.658275390625,0.9858125448226929,8.61972427368164,-0.46627077460289
1789729837980212000,8.6682119140625,0.24779987335205078,9.189544677734375,-0.5315127968788147
1789729837990148600,8.678148681640625,-0.3411737382411957,10.037690162658691,-0.40880993008613586
1789729838000086300,8.688086181640625,-0.6117185354232788,10.758943557739258,-0.2603694200515747
1789729838010020900,8.698020751953125,-0.3148375153541565,11.2282075881958,-0.05686229094862938
1789729838019956000,8.7079560546875,0.4854243993759155,11.28566837310791,0.13946224749088287
1789729838029891300,8.717891357421875,1.4742296934127808,10.976816177368164,0.2783259451389313
1789729838039827200,8.7278271484375,2.406172752380371,10.363302230834961,0.2663549482822418
1789729838049763800,8.737763916015625,3.072359323501587,9.577404975891113,0.12030863761901855
1789729838059701000,8.747700927734375,3.421912670135498,8.930971145629883,-0.13826514780521393
1789729838069639000,8.757638916015624,3.4578258991241455,8.588600158691406,-0.43035775423049927
1789729838079576800,8.767576904296876,3.1681272983551025,8.559869766235352,-0.5219359993934631
1789729838089514800,8.7775146484375,2.691681146621704,8.749011993408203,-0.2651578485965729
1789729838099451400,8.787451416015625,2.3295583724975586,8.895057678222656,0.060453593730926514
1789729838109388000,8.797387939453126,2.2218191623687744,8.883087158203125,0.16340427100658417
1789729838119324400,8.807324462890625,2.2816741466522217,9.03870964050293,-0.030526071786880493
1789729838129261000,8.817260986328124,2.1116859912872314,9.189544677734375,-0.24600422382354736
1789729838139198000,8.827197998046875,1.7357962131500244,9.275735855102539,-0.22206220030784607
1789729838149134600,8.837134521484375,1.2228385210037231,9.385869026184082,-0.18136078119277954
1789729838159071000,8.847071044921876,0.8756792545318604,9.505578994750977,-0.27234044671058655
1789729838169007600,8.857007568359375,0.839766263961792,9.543886184692383,-0.3130418658256531
1789729838178944500,8.866944580078124,0.961870551109314,9.496002197265625,-0.2651578485965729
1789729838188880600,8.876880615234375,1.1079168319702148,9.302072525024414,-0.14065934717655182
1789729838198817000,8.886817138671875,1.246780514717102,8.940547943115234,0.046088382601737976
1789729838208753200,8.896753173828126,1.512536883354187,8.588600158691406,0.17058686912059784
1789729838218689500,8.906689453125,1.9919757843017578,8.312667846679688,0.228047713637352
1789729838228626000,8.9166259765625,2.449268341064453,8.202534675598145,0.15143325924873352
1789729838238562800,8.926562744140625,2.5785553455352783,8.327033042907715,-0.03770867735147476
1789729838248499500,8.93649951171875,2.2577321529388428,8.705916404724121,-0.2579752206802368
1789729838258436400,8.946436279296876,1.7166426181793213,9.227851867675781,-0.4040215313434601
1789729838268373000,8.956373046875,1.2635399103164673,9.822212219238281,-0.3944447338581085
1789729838278310000,8.966309814453124,1.0767922401428223,10.277111053466797,-0.19572599232196808
1789729838288246500,8.97624658203125,1.1629834175109863,10.540472984313965,0.11312603205442429
1789729838298183700,8.98618359375,1.6519991159439087,10.74218463897705,0.23044191300868988
1789729838308120300,8.996120361328124,2.2625205516815186,10.885836601257324,0.048482585698366165
1789729838318057000,9.006056884765625,2.47560453414917,10.837952613830566,-0.1454477459192276
1789729838327993300,9.015993408203125,2.161964178085327,10.696096420288086,-0.13587094843387604
1789729838337930200,9.02593017578125,1.7262194156646729,10.490194320678711,0.0005985504249110818
1789729838347866600,9.03586669921875,1.6136919260025024,10.229227066040039,0.24241292476654053
1789729838357802800,9.045802734375,1.886630892753601,9.977835655212402,0.4100070297718048
1789729838367739100,9.0557392578125,2.1811177730560303,9.807847023010254,0.414795458316803
1789729838377675500,9.065675537109374,2.231395959854126,9.793481826782227,0.3190273642539978
1789729838387612000,9.07561181640625,1.965639591217041,9.90361499786377,0.24480712413787842
1789729838397548500,9.085548583984375,1.5514427423477173,9.99459457397461,0.35015198588371277
1789729838407485400,9.0954853515625,1.512536883354187,9.944316864013672,0.46507367491722107
1789729838417422000,9.105422119140625,1.9081788063049316,9.668983459472656,0.4626794755458832
1789729838427359000,9.11535888671875,2.408566951751709,9.177573204040527,0.4411316514015198
1789729838437295600,9.125295654296876,2.8209681510925293,8.710704803466797,0.2998737692832947
1789729838447232500,9.135232421875,2.9550435543060303,8.465897560119629,0.058059390634298325
1789729838457169200,9.145169189453124,2.69646954536438,8.425195693969727,-0.07841010391712189
1789729838467106000,9.15510595703125,1.9632453918457031,8.5287446975708,-0.04489128291606903
1789729838477042700,9.165042724609375,1.0456676483154297,8.780136108398438,0.16579847037792206
1789729838486979600,9.1749794921875,0.36990416049957275,9.06983470916748,0.49140989780426025
1789729838496916000,9.184916015625,0.23822307586669922,9.314043045043945,0.5895721912384033
1789729838506852600,9.1948525390625,0.5716156363487244,9.469666481018066,0.4124012291431427
1789729838516789200,9.204789306640626,0.8158242106437683,9.529520988464355,0.14425064623355865
1789729838526726000,9.214725830078125,0.8900445103645325,9.759963035583496,-0.04489128291606903
1789729838536662300,9.224662353515624,0.9307458996772766,9.99220085144043,0.02693476900458336
1789729838546599000,9.234598876953125,1.1127052307128906,10.11669921875,0.26396074891090393
1789729838556535600,9.24453564453125,1.5101426839828491,10.164583206176758,0.4291606545448303
1789729838566472000,9.254471923828126,2.1811177730560303,10.222043991088867,0.3884592354297638
1789729838576408600,9.26440869140625,2.8544869422912598,10.29865837097168,0.2041056901216507
1789729838586345200,9.27434521484375,3.2758665084838867,10.408791542053223,0.055665191262960434
1789729838596281600,9.284281494140625,3.376422882080078,10.399214744567871,0.0077811554074287415
1789729838606218200,9.29421826171875,3.206434726715088,10.38963794708252,-0.016160860657691956
1789729838616155000,9.30415478515625,2.9454667568206787,10.394426345825195,-0.03292027488350868
1789729838626091500,9.314091552734375,2.737171173095703,10.439916610717773,-0.07841010391712189
1789729838636028000,9.32402783203125,2.58813214302063,10.504559516906738,-0.16220717132091522
1789729838645964500,9.333964599609375,2.408566951751709,10.583568572998047,-0.22685061395168304
1789729838655901200,9.343901123046875,2.0829553604125977,10.619482040405273,-0.1430535465478897
1789729838665837600,9.353837646484376,1.8626888990402222,10.631452560424805,0.03890577703714371
1789729838675774200,9.363774169921875,1.9033904075622559,10.526107788085938,0.21607670187950134
1789729838685710800,9.3737109375,2.099714994430542,10.255562782287598,0.3597288131713867
1789729838695647500,9.3836474609375,2.3056161403656006,9.913191795349121,0.40043023228645325
1789729838705584000,9.393584228515625,2.47560453414917,9.52473258972168,0.3214215636253357
1789729838715520800,9.403520751953126,2.5689783096313477,9.177573204040527,0.17537526786327362
1789729838725457400,9.41345751953125,2.473210334777832,8.94773006439209,0.012569558806717396
1789729838735394000,9.42339404296875,2.1164743900299072,8.76577091217041,-0.07841010391712189
1789729838745331000,9.4333310546875,1.599326729774475,8.605359077453613,-0.18375498056411743
1789729838755267600,9.443267578125,1.2755109071731567,8.60775375366211,-0.4016273319721222
1789729838765204200,9.453204345703124,1.2539631128311157,8.78731918334961,-0.6248866319656372
1789729838775140900,9.463140869140625,1.1342530250549316,9.062651634216309,-0.7541735172271729
1789729838785077500,9.473077392578125,0.8924387097358704,9.318831443786621,-0.6751648783683777
1789729838795014100,9.48301416015625,1.0145429372787476,9.560646057128906,-0.47824180126190186
1789729838804950800,9.49295068359375,1.4526818990707397,9.75278091430664,-0.27234044671058655
1789729838814887400,9.502887451171874,1.8722656965255737,9.949105262756348,-0.15502455830574036
1789729838824824000,9.512823974609375,2.298433542251587,9.932345390319824,0.14664486050605774
1789729838834760700,9.5227607421875,2.648585557937622,9.584588050842285,0.536899745464325
1789729838844697600,9.532697509765624,2.9047651290893555,9.077016830444336,0.7050924301147461
1789729838854634200,9.54263427734375,3.24953031539917,8.67718505859375,0.7050924301147461
1789729838864571000,9.55257080078125,3.3644518852233887,8.315062522888184,0.5895721912384033
1789729838874507500,9.562507568359376,3.026869535446167,8.044517517089844,0.4818331003189087
1789729838884444200,9.572444091796875,2.3918075561523438,7.903259754180908,0.42197805643081665
1789729838894380800,9.582380859375,1.7142484188079834,7.838616371154785,0.3932476341724396
1789729838904317400,9.5923173828125,1.2970588207244873,7.967903137207031,0.18974047899246216
1789729838914254000,9.602254150390625,1.268328309059143,8.429984092712402,-0.1693897694349289
1789729838924190700,9.612190673828126,1.3377602100372314,8.916605949401855,-0.4255693554878235
1789729838934127600,9.622127685546875,1.3210008144378662,9.369110107421875,-0.4471171796321869
1789729838944064500,9.632064453125,0.6937199234962463,9.452906608581543,0.17058686912059784
1789729838954001200,9.642001220703126,0.34596213698387146,9.941922187805176,-0.18136078119277954
1789729838963937500,9.6519375,0.8804676532745361,10.33217716217041,-0.8930372595787048
1789729838973874000,9.6618740234375,1.86508309841156,9.922768592834473,-0.7637503147125244
1789729838983810300,9.671810302734375,2.9550435543060303,9.187150001525879,-0.3250128924846649
1789729838993747000,9.681746826171874,3.685275077819824,8.693944931030273,0.25677812099456787
1789729839003684400,9.691684326171876,4.152742862701416,8.514379501342773,0.436343252658844
1789729839013621000,9.70162109375,4.521450042724609,8.602965354919434,0.39564183354377747
1789729839023557600,9.7115576171875,4.732139587402344,8.772953987121582,0.4100070297718048
1789729839033494300,9.721494384765625,4.598064422607422,9.060257911682129,0.4866214990615845
1789729839043431000,9.731430908203125,4.001908302307129,9.517550468444824,0.6883329749107361
1789729839053367600,9.741367431640626,3.3213562965393066,9.874884605407715,0.9014169573783875
1789729839063304200,9.75130419921875,2.895188331604004,9.932345390319824,1.1408370733261108
1789729839073240600,9.761240478515624,3.0196869373321533,9.609128952026367,1.2078747749328613
1789729839083177000,9.771177001953125,3.5727474689483643,9.06983470916748,1.1959037780761719
1789729839093113300,9.78111328125,4.298789024353027,8.658031463623047,0.99479079246521
1789729839103049700,9.7910498046875,4.866214752197266,8.485649108886719,0.6619967818260193
1789729839112986400,9.800986328125,4.988917827606201,8.456320762634277,0.49619829654693604
1789729839122923000,9.810923095703124,4.547786235809326,8.55029296875,0.4842272996902466
1789729839132859600,9.820859619140625,3.7840356826782227,8.87829875946045,0.47465047240257263
1789729839142796300,9.83079638671875,3.1274259090423584,9.30686092376709,0.292691171169281
1789729839152733000,9.84073291015625,2.6144683361053467,9.692925453186035,0.0867898091673851
1789729839162669600,9.850669677734375,2.2385785579681396,9.97065258026123,-0.10953472554683685
1789729839172606200,9.860606201171874,1.968033790588379,10.140641212463379,-0.2603694200515747
1789729839182542800,9.87054296875,1.845929503440857,10.35372543334961,-0.3824737071990967
1789729839192479500,9.8804794921875,1.8531121015548706,10.473435401916504,-0.43754035234451294
1789729839202416000,9.890416015625,1.922544002532959,10.418368339538574,-0.3058592677116394
1789729839212353000,9.90035302734375,2.0614075660705566,10.375272750854492,-0.07841010391712189
1789729839222289700,9.91028955078125,2.3582887649536133,10.32978343963623,0.02693476900458336
1789729839232226300,9.920226318359376,2.5905263423919678,10.15021800994873,-0.06165069341659546
1789729839242163000,9.930162841796875,2.9526493549346924,10.068815231323242,-0.2603694200515747
1789729839252099600,9.940099609375,3.1872811317443848,9.886856079101562,-0.2890998423099518
1789729839262036200,9.9500361328125,3.4171242713928223,9.791088104248047,-0.43035775423049927
1789729839271972900,9.959972900390625,3.3955764770507812,10.02811336517334,-0.5482721924781799
1789729839281909500,9.969909423828126,3.1489737033843994,10.36569595336914,-0.5386953949928284
1789729839291847200,9.97984716796875,2.6653449535369873,10.672154426574707,-0.43754035234451294
1789729839301783800,9.98978369140625,2.3127987384796143,11.063007354736328,-0.43275195360183716
1789729839311720400,9.999720458984376,2.1045033931732178,11.391013145446777,-0.4279635548591614
1789729839321657000,10.009656982421875,2.0446481704711914,11.46523380279541,-0.29388827085494995
1789729839331593700,10.01959375,2.22660756111145,11.259331703186035,-0.0975637212395668
1789729839341530400,10.0295302734375,2.765901565551758,10.780491828918457,0.09876082092523575
1789729839351467000,10.039467041015625,3.378817081451416,10.23880386352539,0.2041056901216507
1789729839361403600,10.049403564453126,3.886986494064331,9.882067680358887,0.23283611238002777
1789729839371340000,10.059340087890625,4.004302501678467,9.750386238098145,0.19692309200763702
1789729839381276700,10.069276611328124,3.5224692821502686,9.738415718078613,0.17537526786327362
1789729839391213300,10.07921337890625,2.8568811416625977,9.805453300476074,0.1538274586200714
1789729839401150500,10.089150390625,2.343923568725586,9.7791166305542,0.11552023142576218
1789729839411087000,10.099087158203124,2.2457611560821533,9.551069259643555,0.1107318252325058
1789729839421023700,10.109023681640625,2.535459518432617,9.16081428527832,0.17537526786327362
1789729839430960400,10.11896044921875,3.0603883266448975,8.610147476196289,0.21128830313682556
1789729839440896800,10.128896728515626,3.5200750827789307,8.073247909545898,0.12988543510437012
1789729839450833400,10.13883349609375,3.6733038425445557,7.754819393157959,0.02693476900458336
1789729839460770300,10.148770263671874,3.381211280822754,7.60637903213501,0.005386953707784414
1789729839470707500,10.15870751953125,2.806602954864502,7.642292022705078,0.10354922711849213
1789729839480643300,10.168643310546875,2.2409727573394775,7.795520782470703,0.26396074891090393
1789729839490579200,10.1785791015625,1.7980455160140991,8.030152320861816,0.3908534348011017
1789729839500515600,10.188515625,1.525106430053711,8.305485725402832,0.47225627303123474
1789729839510452000,10.198451904296874,1.3808557987213135,8.55268669128418,0.5392939448356628
1789729839520388900,10.208388916015625,1.5101426839828491,8.684368133544922,0.5249287486076355
1789729839530326500,10.218326416015625,1.7908629179000854,8.67718505859375,0.41718965768814087
1789729839540263700,10.228263671875,2.185906171798706,8.64366626739502,0.28550854325294495
1789729839550200300,10.238200439453125,2.559401512145996,8.710704803466797,0.12270283699035645
1789729839560137000,10.248136962890625,2.8113913536071777,8.801684379577637,0.0628477931022644
1789729839570073600,10.258073486328126,2.890399932861328,8.8878755569458,0.11312603205442429
1789729839580010000,10.268010009765625,2.7922377586364746,8.995614051818848,0.1825578808784485
1789729839589947100,10.277947021484374,2.6605565547943115,9.088988304138184,0.21847090125083923
1789729839599883500,10.287883544921876,2.63362193107605,9.084199905395508,0.22086510062217712
1789729839609820000,10.29781982421875,2.7084407806396484,9.00279712677002,0.22086510062217712
1789729839619756300,10.30775634765625,2.80899715423584,9.050681114196777,0.14185644686222076
1789729839629693000,10.31769287109375,3.00053334236145,9.189544677734375,0.058059390634298325
1789729839639629300,10.32762939453125,3.1417911052703857,9.326014518737793,0.10833762586116791
1789729839649565700,10.337565673828125,3.18249249458313,9.541492462158203,0.21847090125083923
1789729839659502300,10.34750244140625,3.1465795040130615,9.803058624267578,0.2950853705406189
1789729839669439500,10.357439453125,3.0340521335601807,9.932345390319824,0.3429693877696991
1789729839679377000,10.367376953125,2.9550435543060303,9.985017776489258,0.42197805643081665
1789729839689313500,10.3773134765625,3.0651767253875732,9.894038200378418,0.4578910768032074
1789729839699250200,10.387250244140626,3.273472309112549,9.62828254699707,0.4507084786891937
1789729839709186800,10.397186767578125,3.4171242713928223,9.187150001525879,0.345363587141037
1789729839719123500,10.40712353515625,3.539228677749634,8.950124740600586,0.16101007163524628
1789729839729060400,10.417060302734376,3.6900634765625,8.67479133605957,-0.06165069341659546
1789729839738997000,10.4269970703125,3.6541502475738525,8.737040519714355,-0.34177228808403015
1789729839748933600,10.43693359375,3.4769794940948486,9.191938400268555,-0.6105214357376099
1789729839758870500,10.44687060546875,3.1848866939544678,9.783905029296875,-0.5889736413955688
1789729839768806700,10.456806640625,2.7946319580078125,10.195708274841309,-0.31543606519699097
1789729839778743000,10.466742919921876,2.5689783096313477,10.32978343963623,0.02214636653661728
1789729839788679200,10.47667919921875,2.7994203567504883,10.404003143310547,0.18495208024978638
1789729839798615600,10.486615478515626,3.1465795040130615,10.449493408203125,0.04369417950510979
1789729839808552000,10.496552001953125,3.397970676422119,10.540472984313965,-0.13108254969120026
1789729839818489900,10.50648974609375,3.443460702896118,10.47822380065918,-0.076015904545784
1789729839828427000,10.516427001953126,3.4314894676208496,10.176554679870605,0.14664486050605774
1789729839838363600,10.52636376953125,3.5703532695770264,9.915586471557617,0.24480712413787842
1789729839848300300,10.53630029296875,3.8103721141815186,9.917980194091797,0.14425064623355865
1789729839858237000,10.54623681640625,3.8965632915496826,9.915586471557617,0.14425064623355865
1789729839868173600,10.556173583984375,3.772064685821533,9.745597839355469,0.40521863102912903
1789729839878108400,10.5661083984375,3.6326024532318115,9.5007905960083,0.6500257849693298
1789729839888043800,10.576043701171875,3.555988073348999,9.282918930053711,0.7170634269714355
1789729839897979600,10.585979736328126,3.5224692821502686,9.10574722290039,0.579995334148407
1789729839907916000,10.595916015625,3.5033156871795654,9.029132843017578,0.3597288131713867
1789729839917853200,10.605853271484374,3.3955764770507812,9.01476764678955,0.13706804811954498
1789729839927790600,10.61579052734375,3.1705214977264404,9.045892715454102,-0.004189853090792894
1789729839937728500,10.625728515625,2.828150749206543,8.97885513305664,-0.04249707981944084
1789729839947666400,10.63566650390625,2.5091233253479004,8.866327285766602,-0.15981295704841614
1789729839957604600,10.6456044921875,2.322375535964966,8.818443298339844,-0.39205053448677063
1789729839967539500,10.65553955078125,2.2457611560821533,8.866327285766602,-0.5913678407669067
1789729839977474600,10.665474609375,2.2457611560821533,8.995614051818848,-0.6536170840263367
1789729839987410000,10.675409912109375,2.1739351749420166,9.09377670288086,-0.6009446382522583
1789729839997346000,10.685345947265626,2.1571757793426514,9.223063468933105,-0.5746083855628967
1789729840007282700,10.69528271484375,2.2864625453948975,9.407417297363281,-0.5267243981361389
1789729840017220000,10.70522021484375,2.454056739807129,9.55825138092041,-0.43035775423049927
1789729840027158000,10.715157958984374,2.499546527862549,9.72165584564209,-0.4279635548591614
1789729840037096200,10.72509619140625,2.3558945655822754,9.84615421295166,-0.41120412945747375
1789729840047033900,10.735033935546875,1.9321208000183105,9.728838920593262,-0.22445641458034515
1789729840056970500,10.744970458984374,1.7405846118927002,9.385869026184082,0.10115502029657364
1789729840066907100,10.7549072265625,2.073378562927246,9.043498039245605,0.37888240814208984
1789729840076843800,10.76484375,2.559401512145996,8.859145164489746,0.37169981002807617
1789729840086780400,10.774780517578124,2.9071593284606934,8.942941665649414,0.16340427100658417
1789729840096717000,10.784717041015625,2.8999767303466797,9.096170425415039,0.12749123573303223
1789729840106653700,10.79465380859375,2.540247917175293,9.1847562789917,0.25677812099456787
1789729840116590300,10.80459033203125,2.097320795059204,9.242217063903809,0.4842272996902466
1789729840126527200,10.81452734375,1.7597382068634033,9.302072525024414,0.6428431272506714
1789729840136463600,10.824463623046874,1.699883222579956,9.381080627441406,0.5871779918670654
1789729840146400000,10.83439990234375,1.8507179021835327,9.517550468444824,0.4578910768032074
1789729840156336600,10.844336669921875,1.987187385559082,9.647436141967773,0.3166331648826599
1789729840166273000,10.85427294921875,1.9943699836730957,9.678560256958008,0.24480712413787842
1789729840176209400,10.86420947265625,1.889025092124939,9.584588050842285,0.28790274262428284
1789729840186146000,10.87414599609375,1.8818424940109253,9.567828178405762,0.23762452602386475
1789729840196082700,10.884082763671875,2.2409727573394775,9.68813705444336,0.228047713637352
1789729840206019600,10.89401953125,2.7754783630371094,9.647436141967773,0.32860419154167175
1789729840215956200,10.903956298828126,3.335721492767334,9.577404975891113,0.3884592354297638
1789729840225893400,10.913893310546875,3.81994891166687,9.59715747833252,0.3621230125427246
1789729840235830800,10.923830810546875,3.9636008739471436,9.613917350769043,0.2783259451389313
1789729840245767400,10.933767333984376,3.8582561016082764,9.575011253356934,0.19452889263629913
1789729840255704000,10.9437041015625,3.5679590702056885,9.55825138092041,0.19213469326496124
1789729840265640700,10.953640625,3.18249249458313,9.481637001037598,0.17058686912059784
1789729840275577300,10.963577392578125,2.9454667568206787,9.503185272216797,0.12509703636169434
1789729840285513500,10.973513427734375,2.8161797523498535,9.479243278503418,0.10833762586116791
1789729840295449600,10.98344970703125,2.6408045291900635,9.450512886047363,0.0867898091673851
1789729840305386000,10.993385986328125,2.4444799423217773,9.510367393493652,0.0077811554074287415
1789729840315322400,11.003322265625,2.118868589401245,9.63067626953125,0.048482585698366165
1789729840325259000,11.013259033203125,1.723825216293335,9.726444244384766,0.005386953707784414
1789729840335196200,11.023196044921875,1.4574702978134155,9.915586471557617,-0.11671733111143112
1789729840345133000,11.033133056640626,1.4526818990707397,10.054450035095215,-0.20051439106464386
1789729840355070200,11.0430703125,1.702277421951294,10.020931243896484,-0.14784196019172668
1789729840365007400,11.05300732421875,2.10210919380188,9.819818496704102,-0.04489128291606903
1789729840374944300,11.0629443359375,2.4899697303771973,9.541492462158203,0.07003039866685867
1789729840384881400,11.07288134765625,2.7539305686950684,9.189544677734375,0.2663549482822418
1789729840394817300,11.0828173828125,2.852092742919922,8.734646797180176,0.5249287486076355
1789729840404754200,11.092754150390626,2.892794132232666,8.305485725402832,0.7050924301147461
1789729840414690800,11.10269091796875,2.7299885749816895,8.128314971923828,0.7170634269714355
1789729840424627700,11.112627685546874,2.4157495498657227,8.365341186523438,0.40282443165779114
1789729840434564400,11.122564453125,1.9273324012756348,8.859145164489746,0.048482585698366165
1789729840444501200,11.132501220703125,1.2659341096878052,9.242217063903809,-0.08319851011037827
1789729840454438000,11.14243798828125,0.6051344871520996,9.352350234985352,0.10594342648983002
1789729840464374500,11.15237451171875,0.1496376097202301,9.419387817382812,0.3429693877696991
1789729840474311200,11.162311279296874,0.08499415963888168,9.690531730651855,0.2711433470249176
1789729840484247800,11.172247802734375,0.3818751573562622,10.018536567687988,0.13946224749088287
1789729840494184400,11.182184326171875,0.8517372608184814,10.102334022521973,0.08439560979604721
1789729840504121000,11.19212109375,1.3664906024932861,9.953893661499023,0.1801636815071106
1789729840514057700,11.2020576171875,1.9321208000183105,9.654618263244629,0.30226796865463257
1789729840523994400,11.211994384765624,2.3032219409942627,9.416994094848633,0.30226796865463257
1789729840533931300,11.22193115234375,2.2888567447662354,9.37629222869873,0.16579847037792206
1789729840543868000,11.231867919921875,1.922544002532959,9.436147689819336,-0.028131870552897453
1789729840553804500,11.241804443359374,1.4526818990707397,9.515155792236328,-0.08319851011037827
1789729840563741200,11.2517412109375,1.2874820232391357,9.337985038757324,0.0628477931022644
1789729840573677800,11.261677734375,1.6160861253738403,9.009979248046875,0.3884592354297638
1789729840583614500,11.271614501953126,2.4444799423217773,8.966883659362793,0.5704185366630554
1789729840593551000,11.281551025390625,3.3476924896240234,9.021950721740723,0.6811503767967224
1789729840603487700,11.29148779296875,3.95641827583313,9.124900817871094,0.6979097723960876
1789729840613424400,11.30142431640625,4.006696701049805,9.383475303649902,0.49140989780426025
1789729840623361800,11.31136181640625,3.3859996795654297,9.5223388671875,0.19692309200763702
1789729840633298700,11.321298583984374,2.7682957649230957,9.798270225524902,-0.6536170840263367
1789729840643234600,11.331234619140625,2.166752576828003,10.751761436462402,-1.1324573755264282
1789729840653170700,11.341170654296874,1.447893500328064,10.492588996887207,-0.31543606519699097
1789729840663106600,11.3511064453125,1.7334020137786865,9.795876502990723,0.2017114907503128
1789729840673043200,11.361043212890625,2.7922377586364746,9.920374870300293,0.32620999217033386
1789729840682980600,11.370980712890624,3.5176808834075928,10.193313598632812,0.35015198588371277
1789729840692918500,11.38091845703125,3.884592294692993,9.985017776489258,0.6332663297653198
1789729840702855200,11.390855224609375,4.035427093505859,9.37629222869873,0.9469067454338074
1789729840712791800,11.400791748046874,4.155137062072754,9.00279712677002,0.8750807046890259
1789729840722728400,11.410728515625,4.001908302307129,9.021950721740723,0.4842272996902466
1789729840732665000,11.4206650390625,3.6278140544891357,9.057863235473633,0.11312603205442429
1789729840742602000,11.43060205078125,3.227982521057129,9.06983470916748,0.07242459803819656
1789729840752538600,11.44053857421875,2.7012581825256348,9.053074836730957,0.18495208024978638
1789729840762475300,11.450475341796874,2.346317768096924,9.211092948913574,0.2041056901216507
1789729840772412000,11.460411865234375,2.425326347351074,9.678560256958008,0.11312603205442429
1789729840782348500,11.4703486328125,2.6653449535369873,9.913191795349121,0.1322796493768692
1789729840792285200,11.48028515625,2.609679937362671,9.692925453186035,0.32620999217033386
1789729840802221800,11.490221923828125,2.6240451335906982,9.335591316223145,0.4794389009475708
1789729840812158500,11.500158447265624,2.825756549835205,9.012373924255371,0.37409400939941406
1789729840822095000,11.51009521484375,2.9694087505340576,8.775347709655762,0.2472013235092163
1789729840832031700,11.52003173828125,2.8329391479492188,8.636484146118164,0.2783259451389313
1789729840841968600,11.52996875,2.513911724090576,8.58381175994873,0.42676645517349243
1789729840851905300,11.5399052734375,2.1068975925445557,8.60775375366211,0.5153518915176392
1789729840861842000,11.549842041015625,1.7262194156646729,8.76337718963623,0.5728127360343933
1789729840871778600,11.559778564453126,1.556231141090393,9.0051908493042,0.6476315855979919
1789729840881715200,11.569715087890625,1.580173134803772,9.110535621643066,0.7314286231994629
1789729840891651800,11.57965185546875,1.8100165128707886,9.077016830444336,0.8846575021743774
1789729840901588500,11.58958837890625,2.315192937850952,8.952518463134766,1.0067617893218994
1789729840911525000,11.599525146484375,2.9502551555633545,8.801684379577637,0.8918401598930359
1789729840921461800,11.609461669921876,3.3668460845947266,8.746617317199707,0.5991489887237549
1789729840931398700,11.619398681640625,3.311779499053955,8.796895980834961,0.35733461380004883
1789729840941335300,11.629335205078124,2.897582530975342,8.904634475708008,0.19213469326496124
1789729840951272000,11.63927197265625,2.4205379486083984,9.086593627929688,0.02454056777060032
1789729840961208600,11.64920849609375,2.032677173614502,9.440936088562012,-0.04249707981944084
1789729840971145500,11.6591455078125,1.8315643072128296,9.829395294189453,-0.011372458189725876
1789729840981082400,11.669082275390625,1.8698714971542358,10.078392028808594,0.07960720360279083
1789729840991019500,11.67901953125,2.027888774871826,10.121487617492676,0.15143325924873352
1789729841000956400,11.688956298828124,2.2649147510528564,10.152612686157227,0.03411737456917763
1789729841010893300,11.698893310546875,2.5306711196899414,10.183736801147461,-0.09038111567497253
1789729841020829400,11.708829345703125,2.849698543548584,10.193313598632812,-0.18136078119277954
1789729841030765800,11.718765869140626,3.153762102127075,10.214861869812012,-0.22685061395168304
1789729841040702000,11.728701904296875,3.292625904083252,10.257957458496094,-0.284311443567276
1789729841050638300,11.738638427734376,3.2830491065979004,10.363302230834961,-0.23403321206569672
1789729841060575000,11.748574951171875,3.2591071128845215,10.564414978027344,-0.15023615956306458
1789729841070512000,11.75851220703125,3.2207999229431152,10.780491828918457,-0.0736217051744461
1789729841080449800,11.76844970703125,3.1010897159576416,10.964845657348633,0.0628477931022644
1789729841090386700,11.77838671875,2.9095535278320312,10.79964542388916,0.5129576921463013
1789729841100323300,11.7883232421875,2.9981391429901123,10.234015464782715,1.0666168928146362
1789729841110260000,11.798260009765626,3.510498285293579,9.409811019897461,1.4113819599151611
1789729841120196600,11.808196533203125,4.210203647613525,8.55268669128418,1.3515268564224243
1789729841130134000,11.818134033203124,4.6291890144348145,8.17141056060791,0.8415619134902954
1789729841140070000,11.82806982421875,4.131195068359375,8.31985092163086,0.12988543510437012
1789729841150006000,11.838006103515625,2.758718967437744,8.681973457336426,-0.21009120345115662
1789729841159942100,11.847942138671876,1.1773487329483032,8.928576469421387,-0.10953472554683685
1789729841169878800,11.857878662109375,-0.07062894850969315,8.923788070678711,0.12988543510437012
1789729841179816000,11.86781591796875,-0.4537012279033661,9.009979248046875,0.1586158573627472
1789729841189753000,11.877753173828125,0.1280897855758667,9.239823341369629,-0.16220717132091522
1789729841199690000,11.88768994140625,1.0480618476867676,9.43375301361084,-0.46148237586021423
1789729841209627100,11.897627197265624,1.5849615335464478,9.479243278503418,-0.569819986820221
1789729841219564000,11.90756396484375,1.5053542852401733,9.412205696105957,-0.48303020000457764
1789729841229500700,11.917500732421875,1.3545196056365967,9.318831443786621,-0.5291185975074768
1789729841239437300,11.927437255859376,1.5203180313110352,9.40023422241211,-0.7134721279144287
1789729841249374000,11.9373740234375,1.845929503440857,9.586981773376465,-0.7469909191131592
1789729841259310600,11.947310546875,2.0661959648132324,9.793481826782227,-0.6224924325942993
1789729841269247200,11.957247314453125,2.1715409755706787,10.02571964263916,-0.4638765752315521
1789729841279184100,11.96718408203125,2.274491548538208,10.17176628112793,-0.26755204796791077
1789729841289120800,11.977120849609374,2.5689783096313477,10.140641212463379,-0.05446808785200119
1789729841299057400,11.987057373046875,3.093907117843628,10.02811336517334,0.07721300423145294
1789729841308994000,11.996994140625,3.6709096431732178,10.049661636352539,0.12030863761901855
1789729841318930700,12.0069306640625,4.200626850128174,10.32978343963623,0.1586158573627472
1789729841328867300,12.016867431640625,4.37540340423584,10.60272216796875,0.3166331648826599
1789729841338804000,12.026803955078124,3.9372646808624268,10.688913345336914,0.5488707423210144
1789729841348740600,12.03674072265625,3.2854433059692383,10.79964542388916,0.6476315855979919
1789729841358676700,12.0466767578125,2.8784289360046387,10.866683006286621,0.5895721912384033
1789729841368613400,12.05661328125,2.7491421699523926,10.681731224060059,0.579995334148407
1789729841378550000,12.066550048828125,2.9694087505340576,10.394426345825195,0.5728127360343933
1789729841388486700,12.076486572265624,3.426701068878174,10.004171371459961,0.5201402902603149
1789729841398423300,12.08642333984375,3.8055837154388428,9.512762069702148,0.44592007994651794
1789729841408360000,12.09635986328125,3.95641827583313,9.103353500366211,0.30466216802597046
1789729841418296600,12.106296630859376,3.8965632915496826,8.808866500854492,0.18495208024978638
1789729841428233200,12.116233154296875,3.646967649459839,8.64366626739502,0.14664486050605774
1789729841438169900,12.126169921875,3.2615013122558594,8.49522590637207,0.10833762586116791
1789729841448106800,12.136106689453126,2.804208755493164,8.427590370178223,0.08200141042470932
1789729841458043400,12.14604345703125,2.5665841102600098,8.461109161376953,0.08439560979604721
1789729841467980000,12.15597998046875,2.6773159503936768,8.379706382751465,0.12988543510437012
1789729841477917000,12.1659169921875,2.914341926574707,8.123526573181152,0.18495208024978638
1789729841487853600,12.175853515625,3.206434726715088,7.8745293617248535,0.21847090125083923
1789729841497790500,12.18579052734375,3.397970676422119,7.778761386871338,0.2017114907503128
1789729841507727000,12.19572705078125,3.4386723041534424,7.979874134063721,0.1825578808784485
1789729841517664000,12.2056640625,3.1705214977264404,8.293514251708984,0.30945056676864624
1789729841527600600,12.2156005859375,2.6773159503936768,8.590993881225586,0.6212953329086304
1789729841537537500,12.22553759765625,2.276885747909546,8.851962089538574,0.9157821536064148
1789729841547474200,12.23547412109375,2.185906171798706,8.98124885559082,1.0402805805206299
1789729841557411000,12.2454111328125,2.31758713722229,9.057863235473633,0.9684545993804932
1789729841567347700,12.25534765625,2.5258827209472656,9.086593627929688,0.7625532150268555
1789729841577284600,12.26528466796875,2.765901565551758,9.16081428527832,0.49619829654693604
1789729841587221200,12.27522119140625,2.911947727203369,9.211092948913574,0.3645172119140625
1789729841597158100,12.285158203125,2.914341926574707,9.156025886535645,0.5033808946609497
1789729841607095000,12.295094970703126,3.0603883266448975,8.94533634185791,0.7553706169128418
1789729841617031700,12.30503173828125,3.5679590702056885,8.739435195922852,0.8008604645729065
1789729841626968600,12.314968505859374,4.052186489105225,8.653243064880371,0.5752069354057312
1789729841636905200,12.3249052734375,4.255693435668945,8.758588790893555,0.2974795699119568
1789729841646842000,12.334842041015625,3.975571870803833,8.988431930541992,0.17058686912059784
1789729841656778800,12.34477880859375,3.1417911052703857,9.225458145141602,0.25438392162323
1789729841666715600,12.354715576171875,2.279279947280884,9.531915664672852,0.4411316514015198
1789729841676652300,12.36465234375,1.7693150043487549,9.7791166305542,0.7050924301147461
1789729841686589200,12.374589111328126,1.86508309841156,10.013748168945312,0.7841010689735413
1789729841696525800,12.38452587890625,2.360682964324951,10.317811965942383,0.6811503767967224
1789729841706462700,12.394462646484374,2.715623378753662,10.60032844543457,0.6212953329086304
1789729841716399400,12.4043994140625,2.7108349800109863,10.737396240234375,0.7721300721168518
1789729841726336300,12.414336181640625,2.6581623554229736,10.735001564025879,1.0091559886932373
1789729841736273000,12.42427294921875,2.8401217460632324,10.676942825317383,1.136048674583435
1789729841746209800,12.434209716796875,3.2806549072265625,10.506954193115234,1.2078747749328613
1789729841756146400,12.444146484375,3.86543869972229,10.229227066040039,1.282094955444336
1789729841766082600,12.45408251953125,4.41849946975708,9.980229377746582,1.2725181579589844
1789729841776019000,12.46401904296875,4.763264179229736,9.86770248413086,1.1528080701828003
1789729841785955300,12.473955322265626,4.784811973571777,10.006566047668457,0.9516952037811279
1789729841795892000,12.48389208984375,4.365826606750488,10.229227066040039,0.812831461429596
1789729841805828900,12.493828857421875,3.5942952632904053,10.303446769714355,0.7864952683448792
1789729841815765800,12.503765869140626,3.002927541732788,10.32978343963623,0.7625532150268555
1789729841825702700,12.51370263671875,2.852092742919922,10.289081573486328,0.6308721303939819
1789729841835639600,12.5236396484375,3.0148985385894775,10.17416000366211,0.4770447015762329
1789729841845576400,12.533576416015626,3.333327293395996,9.996989250183105,0.3645172119140625
1789729841855513000,12.54351318359375,3.536834478378296,9.860519409179688,0.24001872539520264
1789729841865450000,12.553449951171874,3.467402696609497,9.68574333190918,0.21607670187950134
1789729841875387000,12.563386962890625,3.273472309112549,9.323619842529297,0.28311434388160706
1789729841885323800,12.57332373046875,3.050811529159546,8.942941665649414,0.20889410376548767
1789729841895260700,12.5832607421875,2.7515363693237305,8.892663955688477,-0.004189853090792894
1789729841905197600,12.593197509765625,2.408566951751709,9.167996406555176,-0.14065934717655182
1789729841915134200,12.60313427734375,2.0661959648132324,9.531915664672852,0.10115502029657364
1789729841925070300,12.6130703125,1.766920804977417,9.769539833068848,0.6308721303939819
1789729841935006200,12.623006103515625,1.5442601442337036,9.745597839355469,1.171961784362793
1789729841944942600,12.632942626953126,1.845929503440857,9.55825138092041,1.3898340463638306
1789729841954879200,12.642879150390625,2.667739152908325,9.225458145141602,1.2318167686462402
1789729841964816400,12.65281640625,3.290231704711914,8.782530784606934,0.9660604000091553
1789729841974753300,12.662753173828126,3.3429040908813477,8.300697326660156,0.8343793153762817
1789729841984690700,12.672690673828125,3.053205728530884,7.876923561096191,0.8391677141189575
1789729841994627800,12.6826279296875,2.653373956680298,7.544129371643066,0.8798691034317017
1789729842004565000,12.69256494140625,2.3319525718688965,7.3669586181640625,0.8487445116043091
1789729842014501600,12.702501708984375,2.166752576828003,7.357381820678711,0.7577648162841797
1789729842024438300,12.712438232421874,1.9967641830444336,7.529764175415039,0.596754789352417
1789729842034375000,12.722375,1.800439715385437,7.996633529663086,0.3214215636253357
1789729842044311600,12.7323115234375,1.4646528959274292,8.753800392150879,0.1322796493768692
1789729842054248200,12.742248291015626,1.0313023328781128,9.553462982177734,0.11791443079710007
1789729842064184800,12.752184814453125,0.7511807680130005,10.284293174743652,0.20889410376548767
1789729842074121500,12.76212158203125,0.9091981053352356,10.792462348937988,0.3932476341724396
1789729842084058400,12.772058349609376,1.6927006244659424,10.969634056091309,0.6165069341659546
1789729842093995000,12.7819951171875,2.890399932861328,10.864288330078125,0.690727174282074
1789729842103931600,12.791931640625,4.195838451385498,10.518924713134766,0.5321113467216492
1789729842113868300,12.801868408203125,5.235520362854004,10.092757225036621,0.3477577865123749
1789729842123805000,12.811804931640625,5.757456302642822,9.72165584564209,0.3357867896556854
1789729842133741600,12.821741455078126,5.692812919616699,9.507973670959473,0.49140989780426025
1789729842143678200,12.83167822265625,5.106233596801758,9.553462982177734,0.7194576263427734
1789729842153614800,12.84161474609375,4.222174644470215,9.803058624267578,0.9157821536064148
1789729842163551500,12.851551513671875,3.3045969009399414,10.121487617492676,1.0857704877853394
1789729842173488000,12.861488037109375,2.4899697303771973,10.315418243408203,1.3563152551651
1789729842183425000,12.871425048828126,1.9321208000183105,10.380061149597168,1.657984733581543
1789729842193361700,12.881361572265625,1.778891921043396,10.336965560913086,1.7830817699432373
1789729842203298600,12.891298583984375,2.0374655723571777,10.200496673583984,1.7399860620498657
1789729842213235500,12.9012353515625,2.434903144836426,9.87967300415039,1.6531962156295776
1789729842223172000,12.911172119140625,2.780266761779785,9.472060203552246,1.4688427448272705
1789729842233109000,12.92110888671875,2.943072557449341,9.187150001525879,1.1456254720687866
1789729842243045600,12.931045654296875,2.8544869422912598,9.029132843017578,0.8176198601722717
1789729842252982500,12.940982421875,2.6001031398773193,8.988431930541992,0.5847837924957275
1789729842262919200,12.950919189453124,2.319981336593628,9.045892715454102,0.46986207365989685
1789729842272856000,12.96085595703125,2.097320795059204,9.057863235473633,0.4866214990615845
1789729842282792700,12.970792724609375,2.1332337856292725,8.971672058105469,0.6332663297653198
1789729842292729600,12.9807294921875,2.4612393379211426,8.806472778320312,0.8391677141189575
1789729842302666200,12.990666259765625,2.8640637397766113,8.593388557434082,1.0450690984725952
1789729842312603100,13.00060302734375,3.2160115242004395,8.190564155578613,1.2030863761901855
1789729842322539800,13.010539794921876,3.5416228771209717,7.706935405731201,1.382651448249817
1789729842332476700,13.0204765625,3.846285104751587,7.213130950927734,1.4856021404266357
1789729842342413300,13.030413330078124,3.9588124752044678,6.95695161819458,1.3874398469924927
1789729842352350200,13.04035009765625,3.6996402740478516,6.971316814422607,1.1288660764694214
1789729842362286800,13.050286865234375,3.0986955165863037,7.292140007019043,0.8008604645729065
1789729842372223700,13.0602236328125,2.2146365642547607,7.833827972412109,0.6404489278793335
1789729842382160400,13.070160400390625,1.1677719354629517,8.511985778808594,0.6619967818260193
1789729842392097300,13.08009716796875,0.32202014327049255,9.326014518737793,0.6572083830833435
